ID,Acc,condition,block,orientation,foreperiod,RT,counterbalance,extFixationDuration,action_trigger.rt,oneBackFP,twoBackFP,oneBackEffect,testPos,numForeperiod,numOneBackFP,squaredNumForeperiod,trial,numOneBackFPDiff,oneBackFPDiff,squaredNumOneBackFPDiff,seqOri,prevOri,numLogFP,logFP,logOneBackFP,logRT,invRT,RTzscore,logRTzscore,scaledNumForeperiod,squaredScaledNumForeperiod,scaledNumOneBackFP,scaledNumOneBackFPDiff,squaredScaledNumOneBackFPDiff
002,1,external,0,right,1000,402.7,external-action,1460.6267269999998,NA,2200,1600,-134.5,1,1000,2200,1000000,3,-1200,-1200,1440000,different,left,3,3,3.342422680822206,2.6049816296074315,0.0024832381425378696,-0.7664192852561088,-0.7722997921591651,-1.354244111985054,1.8339771148461872,0.44365685543781047,-1.0666581038267167,1.1377595104592066
002,1,external,0,left,2800,405.5,external-action,1545.935099,NA,1000,2200,2.80000000000002,1,2800,1000,7840000,4,1800,1800,3240000,different,right,3.4471580313422194,3.44715803134222,3,2.6079908585471747,0.002466091245376079,-0.7291573665402168,-0.7281349914609919,1.3325941234252048,1.7758070977873899,-1.3448853150698115,1.6529668628837864,2.7322994497918662
002,1,external,0,right,1600,398.2,external-action,1661.246489,NA,2800,1000,-7.30000000000002,1,1600,2800,2560000,5,-1200,-1200,1440000,different,left,3.2041199826559246,3.20411998265592,3.4471580313422194,2.6001012556913907,0.0025113008538422904,-0.8263045117637919,-0.8439263601772495,-0.4586313668483011,0.21034273065714093,1.3379279406916214,-1.0666581038267167,1.1377595104592066
002,1,external,0,left,2800,501.6,external-action,1523.480384,NA,2200,1600,123.70000000000005,1,2800,2200,7840000,7,600,600,360000,different,right,3.4471580313422194,3.44715803134222,3.342422680822206,2.70035752782266,0.001993620414673046,0.5497249151016401,0.6274798924148784,1.3325941234252048,1.7758070977873899,0.44365685543781047,0.5651168761995851,0.31935708376557714
002,1,external,0,right,1600,470.6,external-action,1259.5969220000002,NA,2800,2200,-31.00000000000002,1,1600,2800,2560000,8,-1200,-1200,1440000,different,left,3.2041199826559246,3.20411998265592,3.4471580313422194,2.6726519228400023,0.0021249468763280916,0.137182243604267,0.22085994199468337,-0.4586313668483011,0.21034273065714093,1.3379279406916214,-1.0666581038267167,1.1377595104592066
002,1,external,0,right,2200,467.3,external-action,1291.455067,NA,1600,2800,-3.30000000000002,1,2200,1600,4840000,9,600,600,360000,same,right,3.342422680822206,3.34242268082221,3.2041199826559246,2.6695957810243134,0.0021399529210357373,0.09326641083196585,0.17600662677740633,0.43698137828845185,0.19095272497087507,-0.45061422981600047,0.5651168761995851,0.31935708376557714
002,1,external,0,left,1000,487.59999999999997,external-action,1724.2571639999999,NA,2200,1600,20.299999999999983,1,1000,2200,1000000,10,-1200,-1200,1440000,different,right,3,3,3.342422680822206,2.6880636969463443,0.002050861361771944,0.36341532152218053,0.4470500875241042,-1.354244111985054,1.8339771148461872,0.44365685543781047,-1.0666581038267167,1.1377595104592066
002,1,external,0,left,2800,502.70000000000005,external-action,1423.031315,NA,1000,2200,15.10000000000005,1,2800,1000,7840000,11,1800,1800,3240000,same,left,3.4471580313422194,3.44715803134222,3,2.7013088852280753,0.001989258006763477,0.5643635260257408,0.6414424426376204,1.3325941234252048,1.7758070977873899,-1.3448853150698115,1.6529668628837864,2.7322994497918662
002,1,external,0,left,1000,518.1,external-action,1587.3587739999998,NA,2800,1000,15.39999999999997,1,1000,2800,1000000,12,-1800,-1800,3240000,same,left,3,3,3.4471580313422194,2.714413592287121,0.0019301293186643504,0.7693040789631452,0.8337730319878908,-1.354244111985054,1.8339771148461872,1.3379279406916214,-1.6105830971688173,2.5939779128859
002,1,external,0,left,2800,486.09999999999997,external-action,1642.08652,NA,1000,2800,-32.00000000000003,1,2800,1000,7840000,13,1800,1800,3240000,same,left,3.4471580313422194,3.44715803134222,3,2.686725621074542,0.002057189878625797,0.34345357935295284,0.4274118827279536,1.3325941234252048,1.7758070977873899,-1.3448853150698115,1.6529668628837864,2.7322994497918662
002,1,external,0,right,2200,464,external-action,1551.8522859999998,NA,2800,1000,-22.099999999999948,1,2200,2800,4840000,14,-600,-600,360000,different,left,3.342422680822206,3.34242268082221,3.4471580313422194,2.6665179805548807,0.0021551724137931034,0.049350578059664696,0.13083543939249423,0.43698137828845185,0.19095272497087507,1.3379279406916214,-0.5227331104846162,0.273249904796922
002,1,external,0,right,2200,494.5,external-action,1359.837438,NA,2200,2800,30.49999999999997,1,2200,2200,4840000,15,0,0,0,same,right,3.342422680822206,3.34242268082221,3.342422680822206,2.694166295933198,0.0020222446916076846,0.45523933550062856,0.5366145817490827,0.43698137828845185,0.19095272497087507,0.44365685543781047,0.02119188285748444,4.490958990453429e-4
002,1,external,0,right,1600,501.90000000000003,external-action,1410.0508060000002,NA,2200,2200,7.40000000000001,1,1600,2200,2560000,16,-600,-600,360000,same,right,3.2041199826559246,3.20411998265592,3.342422680822206,2.700617195682057,0.001992428770671448,0.5537172635354859,0.6312908949964781,-0.4586313668483011,0.21034273065714093,0.44365685543781047,-0.5227331104846162,0.273249904796922
002,1,external,0,right,2800,536.9000000000001,external-action,1548.0019419999999,NA,1600,2200,35.00000000000003,1,2800,1600,7840000,17,1200,1200,1440000,same,right,3.4471580313422194,3.44715803134222,3.2041199826559246,2.7298934039632377,0.001862544235425591,1.0194912474841338,1.0609617275675909,1.3325941234252048,1.7758070977873899,-0.45061422981600047,1.1090418695416857,1.2299738683965173
002,1,external,0,right,2200,469.6,external-action,1437.3121019999999,NA,2800,1600,-67.30000000000003,1,2200,2800,4840000,18,-600,-600,360000,same,right,3.342422680822206,3.34242268082221,3.4471580313422194,2.671728088239558,0.002129471890971039,0.12387441549144852,0.2073013288669724,0.43698137828845185,0.19095272497087507,1.3379279406916214,-0.5227331104846162,0.273249904796922
002,1,external,0,right,2800,380.3,external-action,1272.605228,NA,2200,2800,-89.3,1,2800,2200,7840000,19,600,600,360000,same,right,3.4471580313422194,3.44715803134222,3.342422680822206,2.5801263254115825,0.0026295030239284773,-1.0645146349832426,-1.137087443109982,1.3325941234252048,1.7758070977873899,0.44365685543781047,0.5651168761995851,0.31935708376557714
002,1,external,0,left,2800,403.5,external-action,1603.3068230000001,NA,2800,2200,23.2,1,2800,2800,7840000,20,0,0,0,different,right,3.4471580313422194,3.44715803134222,3.4471580313422194,2.6058435390580894,0.0024783147459727386,-0.7557730227658538,-0.759650020450062,1.3325941234252048,1.7758070977873899,1.3379279406916214,0.02119188285748444,4.490958990453429e-4
002,1,external,0,left,2200,530.3,external-action,1383.815228,NA,2800,2800,126.79999999999997,1,2200,2800,4840000,21,-600,-600,360000,same,left,3.342422680822206,3.34242268082221,3.4471580313422194,2.7245216271185626,0.0018857250612860648,0.9316595819395298,0.9821231086088151,0.43698137828845185,0.19095272497087507,1.3379279406916214,-0.5227331104846162,0.273249904796922
002,1,external,0,right,1000,423.59999999999997,external-action,1299.225683,NA,2200,2800,-106.70000000000002,1,1000,2200,1000000,22,-1200,-1200,1440000,different,left,3,3,3.342422680822206,2.6269559514354475,0.0023607176581680834,-0.4882856776982027,-0.4497947373943191,-1.354244111985054,1.8339771148461872,0.44365685543781047,-1.0666581038267167,1.1377595104592066
002,1,external,0,right,2800,517.5999999999999,external-action,1481.450568,NA,1000,2200,93.99999999999996,1,2800,1000,7840000,23,1800,1800,3240000,same,right,3.4471580313422194,3.44715803134222,3,2.713994267660644,0.0019319938176197838,0.7626501649067344,0.8276188347077789,1.3325941234252048,1.7758070977873899,-1.3448853150698115,1.6529668628837864,2.7322994497918662
002,1,external,0,right,1600,434.59999999999997,external-action,1554.1562410000001,NA,2800,1000,-82.99999999999996,1,1600,2800,2560000,24,-1200,-1200,1440000,same,right,3.2041199826559246,3.20411998265592,3.4471580313422194,2.638089721984506,0.0023009664058904742,-0.3418995684571993,-0.286390500905647,-0.4586313668483011,0.21034273065714093,1.3379279406916214,-1.0666581038267167,1.1377595104592066
002,1,external,0,left,1600,438.40000000000003,external-action,1518.609786,NA,1600,2800,3.80000000000002,1,1600,1600,2560000,25,0,0,0,different,right,3.2041199826559246,3.20411998265592,3.2041199826559246,2.641870545476313,0.002281021897810219,-0.29132982162848814,-0.23090143067063837,-0.4586313668483011,0.21034273065714093,-0.45061422981600047,0.02119188285748444,4.490958990453429e-4
002,1,external,0,left,2200,507.49999999999994,external-action,1292.193832,NA,1600,1600,69.09999999999994,1,2200,1600,4840000,26,600,600,360000,same,left,3.342422680822206,3.34242268082221,3.2041199826559246,2.7054360465852505,0.001970443349753695,0.6282411009672682,0.7020145235389819,0.43698137828845185,0.19095272497087507,-0.45061422981600047,0.5651168761995851,0.31935708376557714
002,1,external,0,left,1600,424.4,external-action,1404.016723,NA,2200,1600,-83.09999999999995,1,1600,2200,2560000,27,-600,-600,360000,same,left,3.2041199826559246,3.20411998265592,3.342422680822206,2.627775375229303,0.0023562676720075403,-0.4776394152079477,-0.4377685043400617,-0.4586313668483011,0.21034273065714093,0.44365685543781047,-0.5227331104846162,0.273249904796922
002,1,external,0,right,2200,408.5,external-action,1590.7609439999999,NA,1600,2200,-15.900000000000018,1,2200,1600,4840000,28,600,600,360000,different,left,3.342422680822206,3.34242268082221,3.2041199826559246,2.6111920608684343,0.0024479804161566705,-0.6892338822017614,-0.6811527028601713,0.43698137828845185,0.19095272497087507,-0.45061422981600047,0.5651168761995851,0.31935708376557714
002,1,external,0,left,1000,514.9,external-action,1478.562569,NA,2200,1600,106.40000000000003,1,1000,2200,1000000,29,-1200,-1200,1440000,different,right,3,3,3.342422680822206,2.7117228918272347,0.0019421246844047388,0.7267190290021254,0.7942830988758203,-1.354244111985054,1.8339771148461872,0.44365685543781047,-1.0666581038267167,1.1377595104592066
002,1,external,0,right,1600,405.4,external-action,1261.933974,NA,1000,2200,-109.50000000000004,1,1600,1000,2560000,30,600,600,360000,different,left,3.2041199826559246,3.20411998265592,3,2.60788374435699,0.00246669955599408,-0.730488149351499,-0.729707047610983,-0.4586313668483011,0.21034273065714093,-1.3448853150698115,0.5651168761995851,0.31935708376557714
002,1,external,0,right,1000,393.1,external-action,1699.518358,NA,1600,1000,-12.29999999999997,1,1000,1600,1000000,31,-600,-600,360000,same,right,3,3,3.2041199826559246,2.5945030438200893,0.002543881963876876,-0.8941744351391658,-0.9260882416801145,-1.354244111985054,1.8339771148461872,-0.45061422981600047,-0.5227331104846162,0.273249904796922
002,1,external,0,left,2200,388.79999999999995,external-action,1268.166656,NA,1000,1600,-4.30000000000002,1,2200,1000,4840000,32,1200,1200,1440000,different,right,3.342422680822206,3.34242268082221,3,2.589726256254237,0.0025720164609053502,-0.9513980960242862,-0.996194529718597,0.43698137828845185,0.19095272497087507,-1.3448853150698115,1.1090418695416857,1.2299738683965173
002,1,external,0,left,1600,501.29999999999995,external-action,1321.429598,NA,2200,1000,112.5,1,1600,2200,2560000,33,-600,-600,360000,same,left,3.2041199826559246,3.20411998265592,3.342422680822206,2.7000977046130537,0.0019948134849391585,0.5457325666677937,0.6236666098435598,-0.4586313668483011,0.21034273065714093,0.44365685543781047,-0.5227331104846162,0.273249904796922
002,1,external,0,left,1000,412.4,external-action,1454.527931,NA,1600,2200,-88.89999999999998,1,1000,1600,1000000,34,-600,-600,360000,same,left,3,3,3.2041199826559246,2.6153186566114788,0.0024248302618816685,-0.6373333525617696,-0.620588923166811,-1.354244111985054,1.8339771148461872,-0.45061422981600047,-0.5227331104846162,0.273249904796922
002,1,external,0,right,2200,389.90000000000003,external-action,1339.167141,NA,1000,1600,-22.49999999999996,1,2200,1000,4840000,35,1200,1200,1440000,different,left,3.342422680822206,3.34242268082221,3,2.590953235187986,0.0025647601949217746,-0.9367594851001848,-0.9781868336758719,0.43698137828845185,0.19095272497087507,-1.3448853150698115,1.1090418695416857,1.2299738683965173
002,1,external,0,right,1000,387.79999999999995,external-action,1525.7609949999999,NA,2200,1000,-2.10000000000004,1,1000,2200,1000000,36,-1200,-1200,1440000,same,right,3,3,3.342422680822206,2.5886078047426864,0.0025786487880350697,-0.9647059241371047,-1.012609428381118,-1.354244111985054,1.8339771148461872,0.44365685543781047,-1.0666581038267167,1.1377595104592066
002,1,external,0,right,2800,483.8,external-action,1616.813189,NA,1000,2200,96.00000000000004,1,2800,1000,7840000,37,1800,1800,3240000,same,right,3.4471580313422194,3.44715803134222,3,2.684665864025861,0.002066969822240595,0.3128455746934709,0.3971819595937498,1.3325941234252048,1.7758070977873899,-1.3448853150698115,1.6529668628837864,2.7322994497918662
002,1,external,0,right,1000,491.5,external-action,1507.3920309999999,NA,2800,1000,7.699999999999981,1,1000,2800,1000000,38,-1800,-1800,3240000,same,right,3,3,3.4471580313422194,2.6915235221681546,0.002034587995930824,0.4153158511621731,0.4978280424193556,-1.354244111985054,1.8339771148461872,1.3379279406916214,-1.6105830971688173,2.5939779128859
002,1,external,0,left,2800,465.6,external-action,1305.499681,NA,1000,2800,-25.899999999999977,1,2800,1000,7840000,39,1800,1800,3240000,different,right,3.4471580313422194,3.44715803134222,3,2.668012971641832,0.0021477663230240547,0.07064310304017457,0.1527766026349237,1.3325941234252048,1.7758070977873899,-1.3448853150698115,1.6529668628837864,2.7322994497918662
002,1,external,0,right,1000,399.6,external-action,1461.878416,NA,2800,1000,-66,1,1000,2800,1000000,40,-1800,-1800,3240000,different,left,3,3,3.4471580313422194,2.601625479553945,0.0025025025025025025,-0.8076735524058456,-0.8215561635398188,-1.354244111985054,1.8339771148461872,1.3379279406916214,-1.6105830971688173,2.5939779128859
002,1,external,0,left,2800,442.09999999999997,external-action,1577.017026,NA,1000,2800,42.499999999999986,1,2800,1000,7840000,41,1800,1800,3240000,different,right,3.4471580313422194,3.44715803134222,3,2.645520514905874,0.002261931689662972,-0.24209085761106064,-0.17733283365165028,1.3325941234252048,1.7758070977873899,-1.3448853150698115,1.6529668628837864,2.7322994497918662
002,1,external,0,right,1600,497.5,external-action,1251.428267,NA,2800,1000,55.4,1,1600,2800,2560000,42,-1200,-1200,1440000,different,left,3.2041199826559246,3.20411998265592,3.4471580313422194,2.6967930850817443,0.0020100502512562816,0.49516281983908406,0.5751665236400747,-0.4586313668483011,0.21034273065714093,1.3379279406916214,-1.0666581038267167,1.1377595104592066
002,1,external,0,right,2800,513.8000000000001,external-action,1599.485045,NA,1600,2800,16.30000000000003,1,2800,1600,7840000,43,1200,1200,1440000,same,right,3.4471580313422194,3.44715803134222,3.2041199826559246,2.7107940999303275,0.0019462826002335537,0.7120804180780262,0.7806517302301084,1.3325941234252048,1.7758070977873899,-0.45061422981600047,1.1090418695416857,1.2299738683965173
002,1,external,0,left,1000,469.6,external-action,1502.359045,NA,2800,1600,-44.20000000000002,1,1000,2800,1000000,44,-1800,-1800,3240000,different,right,3,3,3.4471580313422194,2.671728088239558,0.002129471890971039,0.12387441549144852,0.2073013288669724,-1.354244111985054,1.8339771148461872,1.3379279406916214,-1.6105830971688173,2.5939779128859
002,1,external,0,left,2200,534.3,external-action,1529.772981,NA,1000,2800,64.69999999999997,1,2200,1000,4840000,45,1200,1200,1440000,same,left,3.342422680822206,3.34242268082221,3,2.727785174182906,0.0018716077110237696,0.9848908943908038,1.0300203967686599,0.43698137828845185,0.19095272497087507,-1.3448853150698115,1.1090418695416857,1.2299738683965173
002,1,external,0,right,1000,480.6,external-action,1639.984297,NA,2200,1000,-53.69999999999997,1,1000,2200,1000000,46,-1200,-1200,1440000,different,left,3,3,3.342422680822206,2.6817837664678814,0.0020807324178110692,0.2702605247324519,0.3548829963743812,-1.354244111985054,1.8339771148461872,0.44365685543781047,-1.0666581038267167,1.1377595104592066
002,1,external,0,left,1600,497,external-action,1609.959062,NA,1000,2200,16.39999999999997,1,1600,1000,2560000,47,600,600,360000,different,right,3.2041199826559246,3.20411998265592,3,2.696356388733332,0.002012072434607646,0.4885089057826748,0.5687573711364111,-0.4586313668483011,0.21034273065714093,-1.3448853150698115,0.5651168761995851,0.31935708376557714
002,1,external,0,right,1000,387.1,external-action,1523.8597359999999,NA,1600,1000,-109.89999999999999,1,1000,1600,1000000,48,-600,-600,360000,different,left,3,3,3.2041199826559246,2.5878231713189552,0.002583311805734952,-0.9740214038160767,-1.0241250622774105,-1.354244111985054,1.8339771148461872,-0.45061422981600047,-0.5227331104846162,0.273249904796922
002,1,external,0,right,2800,477.5,external-action,1636.690375,NA,1000,1600,90.39999999999998,1,2800,1000,7840000,49,1800,1800,3240000,same,right,3.4471580313422194,3.44715803134222,3,2.678973375919765,0.0020942408376963353,0.22900625758271428,0.3136364375624828,1.3325941234252048,1.7758070977873899,-1.3448853150698115,1.6529668628837864,2.7322994497918662
002,1,external,0,left,2800,472.3,external-action,1529.523359,NA,2800,1000,-5.19999999999998,1,2800,2800,7840000,50,0,0,0,different,right,3.4471580313422194,3.44715803134222,3.4471580313422194,2.6742179455767,0.002117298327334321,0.1598055513960583,0.24384359775500875,1.3325941234252048,1.7758070977873899,1.3379279406916214,0.02119188285748444,4.490958990453429e-4
002,1,external,0,left,2800,427.3,external-action,1655.391069,NA,2800,2800,-44.99999999999998,1,2800,2800,7840000,51,0,0,0,same,left,3.4471580313422194,3.44715803134222,3.4471580313422194,2.6307328928171967,0.002340276152586005,-0.43904671368077364,-0.39436264275685623,1.3325941234252048,1.7758070977873899,1.3379279406916214,0.02119188285748444,4.490958990453429e-4
002,1,external,0,right,2200,369.09999999999997,external-action,1515.007363,NA,2800,2800,-58.20000000000003,1,2200,2800,4840000,52,-600,-600,360000,different,left,3.342422680822206,3.34242268082221,3.4471580313422194,2.5671440451956573,0.00270929287455974,-1.2135623098468102,-1.3276212409117207,0.43698137828845185,0.19095272497087507,1.3379279406916214,-0.5227331104846162,0.273249904796922
002,1,external,0,left,1000,431,external-action,1574.121531,NA,2200,2800,61.90000000000001,1,1000,2200,1000000,53,-1200,-1200,1440000,different,right,3,3,3.342422680822206,2.6344772701607315,0.002320185614849188,-0.3898077496633454,-0.3394084726264563,-1.354244111985054,1.8339771148461872,0.44365685543781047,-1.0666581038267167,1.1377595104592066
002,1,external,0,right,2800,384.90000000000003,external-action,1643.77063,NA,1000,2200,-46.099999999999966,1,2800,1000,7840000,54,1800,1800,3240000,different,left,3.4471580313422194,3.44715803134222,3,2.585347911094591,0.0025980774227071964,-1.0032986256642773,-1.060453097356886,1.3325941234252048,1.7758070977873899,-1.3448853150698115,1.6529668628837864,2.7322994497918662
002,1,external,0,left,1600,413.7,external-action,1491.438931,NA,2800,1000,28.79999999999999,1,1600,2800,2560000,55,-1200,-1200,1440000,different,right,3.2041199826559246,3.20411998265592,3.4471580313422194,2.616685520895512,0.00241721053903795,-0.6200331760151054,-0.600528206652856,-0.4586313668483011,0.21034273065714093,1.3379279406916214,-1.0666581038267167,1.1377595104592066
002,1,external,0,right,2800,414.5,external-action,1494.958807,NA,1600,2800,0.7999999999999601,1,2800,1600,7840000,56,1200,1200,1440000,different,left,3.4471580313422194,3.44715803134222,3.2041199826559246,2.6175245348862926,0.0024125452352231603,-0.6093869135248504,-0.5882144590358452,1.3325941234252048,1.7758070977873899,-0.45061422981600047,1.1090418695416857,1.2299738683965173
002,1,external,0,right,1600,478,external-action,1613.795205,NA,2800,1600,63.5,1,1600,2800,2560000,57,-1200,-1200,1440000,same,right,3.2041199826559246,3.20411998265592,3.4471580313422194,2.6794278966121188,0.0020920502092050207,0.23566017163912353,0.32030718817433446,-0.4586313668483011,0.21034273065714093,1.3379279406916214,-1.0666581038267167,1.1377595104592066
002,1,external,0,left,1600,429.09999999999997,external-action,1472.085638,NA,1600,2800,-48.9,1,1600,1600,2560000,58,0,0,0,different,right,3.2041199826559246,3.20411998265592,3.2041199826559246,2.632558514532672,0.0023304591004427873,-0.415092623077701,-0.3675689953379584,-0.4586313668483011,0.21034273065714093,-0.45061422981600047,0.02119188285748444,4.490958990453429e-4
002,1,external,0,left,2200,428.8,external-action,1652.08912,NA,1600,1600,-0.29999999999996,1,2200,1600,4840000,59,600,600,360000,same,left,3.342422680822206,3.34242268082221,3.2041199826559246,2.6322547766847135,0.0023320895522388058,-0.41908497151154595,-0.3720267889416321,0.43698137828845185,0.19095272497087507,-0.45061422981600047,0.5651168761995851,0.31935708376557714
002,1,external,0,left,1600,450.7,external-action,1296.45435,NA,2200,1600,21.89999999999997,1,1600,2200,2560000,60,-600,-600,360000,same,left,3.2041199826559246,3.20411998265592,3.342422680822206,2.6538875580709775,0.0022187708009762594,-0.12764353584082133,-0.054534335691122045,-0.4586313668483011,0.21034273065714093,0.44365685543781047,-0.5227331104846162,0.273249904796922
002,1,external,0,left,2200,456.7,external-action,1499.663511,NA,1600,2200,6,1,2200,1600,4840000,61,600,600,360000,same,left,3.342422680822206,3.34242268082221,3.2041199826559246,2.6596310116070008,0.0021896211955331727,-0.04779656716391042,0.029759177968669684,0.43698137828845185,0.19095272497087507,-0.45061422981600047,0.5651168761995851,0.31935708376557714
002,1,external,0,right,1000,462.6,external-action,1491.148476,NA,2200,1600,5.90000000000001,1,1000,2200,1000000,62,-1200,-1200,1440000,different,left,3,3,3.342422680822206,2.6652056284346006,0.0021616947686986594,0.030719618701719114,0.11157476797181516,-1.354244111985054,1.8339771148461872,0.44365685543781047,-1.0666581038267167,1.1377595104592066
002,1,external,0,right,2200,374.7,external-action,1374.064817,NA,1000,2200,-87.90000000000003,1,2200,1000,4840000,63,1200,1200,1440000,same,right,3.342422680822206,3.34242268082221,3,2.573683693093798,0.0026688017080330933,-1.1390384724150264,-1.2316424198113722,0.43698137828845185,0.19095272497087507,-1.3448853150698115,1.1090418695416857,1.2299738683965173
002,1,external,0,right,1600,367.8,external-action,1707.008283,NA,2200,1000,-6.89999999999996,1,1600,2200,2560000,64,-600,-600,360000,same,right,3.2041199826559246,3.20411998265592,3.342422680822206,2.5656117249020585,0.002718868950516585,-1.2308624863934736,-1.3501102644216216,-0.4586313668483011,0.21034273065714093,0.44365685543781047,-0.5227331104846162,0.273249904796922
002,1,external,0,right,2800,451.40000000000003,external-action,1423.3615129999998,NA,1600,2200,83.60000000000001,1,2800,1600,7840000,65,1200,1200,1440000,same,right,3.4471580313422194,3.44715803134222,3.2041199826559246,2.6545615547417434,0.002215330084182543,-0.1183280561618478,-0.044642456664415,1.3325941234252048,1.7758070977873899,-0.45061422981600047,1.1090418695416857,1.2299738683965173
002,1,external,0,left,2800,379.2,external-action,1403.202712,NA,2800,1600,-72.20000000000005,1,2800,2800,7840000,66,0,0,0,different,right,3.4471580313422194,3.44715803134222,3.4471580313422194,2.5788683286660286,0.0026371308016877636,-1.0791532459073432,-1.1555503705438386,1.3325941234252048,1.7758070977873899,1.3379279406916214,0.02119188285748444,4.490958990453429e-4
002,1,external,0,left,1000,461.8,external-action,1601.966717,NA,2800,2800,82.60000000000001,1,1000,2800,1000000,67,-1800,-1800,3240000,same,left,3,3,3.4471580313422194,2.6644539285811577,0.0021654395842356,0.020073356211464173,0.10054248200191294,-1.354244111985054,1.8339771148461872,1.3379279406916214,-1.6105830971688173,2.5939779128859
002,1,external,0,right,1000,385.5,external-action,1704.15843,NA,1000,2800,-76.29999999999998,1,1000,1000,1000000,68,0,0,0,different,left,3,3,3,2.586024382386976,0.0025940337224383916,-0.9953139287965866,-1.0505248996675571,-1.354244111985054,1.8339771148461872,-1.3448853150698115,0.02119188285748444,4.490958990453429e-4
002,1,external,0,right,1600,433.09999999999997,external-action,1403.672044,NA,1000,1000,47.599999999999966,1,1600,1000,2560000,69,600,600,360000,same,right,3.2041199826559246,3.20411998265592,3,2.636588183729842,0.0023089355806972986,-0.361861310626427,-0.3084277533333617,-0.4586313668483011,0.21034273065714093,-1.3448853150698115,0.5651168761995851,0.31935708376557714
002,1,external,0,right,1600,433.2,external-action,1275.519471,NA,1600,1000,0.099999999999989,1,1600,1600,2560000,70,0,0,0,same,right,3.2041199826559246,3.20411998265592,3.2041199826559246,2.636688447953283,0.0023084025854108957,-0.3605305278151449,-0.30695623038376774,-0.4586313668483011,0.21034273065714093,-0.45061422981600047,0.02119188285748444,4.490958990453429e-4
002,1,external,0,left,2200,379.7,external-action,1418.215101,NA,1600,1600,-53.49999999999999,1,2200,1600,4840000,71,600,600,360000,different,right,3.342422680822206,3.34242268082221,3.2041199826559246,2.579440597139797,0.002633658151171978,-1.072499331850934,-1.1471515004027075,0.43698137828845185,0.19095272497087507,-0.45061422981600047,0.5651168761995851,0.31935708376557714
002,1,external,0,right,2800,417.7,external-action,1741.304316,NA,2200,1600,38.00000000000003,1,2800,2200,7840000,72,600,600,360000,different,left,3.4471580313422194,3.44715803134222,3.342422680822206,2.620864475265121,0.0023940627244433805,-0.5668018635638314,-0.5391959881489701,1.3325941234252048,1.7758070977873899,0.44365685543781047,0.5651168761995851,0.31935708376557714
002,1,external,0,left,1600,409.7,external-action,1477.076939,NA,2800,2200,-8,1,1600,2800,2560000,73,-1200,-1200,1440000,different,right,3.2041199826559246,3.20411998265592,3.4471580313422194,2.6124659639531425,0.00244081034903588,-0.6732644884663793,-0.6624563268211561,-0.4586313668483011,0.21034273065714093,1.3379279406916214,-1.0666581038267167,1.1377595104592066
002,1,external,0,left,2200,457.4,external-action,1295.290387,NA,1600,2800,47.69999999999996,1,2200,1600,4840000,74,600,600,360000,same,left,3.342422680822206,3.34242268082221,3.2041199826559246,2.66029616027073,0.002186270222999563,-0.03848108748493763,0.0395211996547815,0.43698137828845185,0.19095272497087507,-0.45061422981600047,0.5651168761995851,0.31935708376557714
002,1,external,0,left,1600,439.5,external-action,1702.38498,NA,2200,1600,-17.89999999999997,1,1600,2200,2560000,75,-600,-600,360000,same,left,3.2041199826559246,3.20411998265592,3.342422680822206,2.642958879409791,0.0022753128555176336,-0.27669121070438824,-0.2149285511631009,-0.4586313668483011,0.21034273065714093,0.44365685543781047,-0.5227331104846162,0.273249904796922
002,1,external,0,left,2200,438.5,external-action,1264.2787680000001,NA,1600,2200,-1,1,2200,1600,4840000,76,600,600,360000,same,left,3.342422680822206,3.34242268082221,3.2041199826559246,2.6419695977020594,0.002280501710376283,-0.28999903881720673,-0.229447695545661,0.43698137828845185,0.19095272497087507,-0.45061422981600047,0.5651168761995851,0.31935708376557714
002,1,external,0,left,1000,433.7,external-action,1328.3312190000001,NA,2200,1600,-4.80000000000002,1,1000,2200,1000000,77,-1200,-1200,1440000,same,left,3,3,3.342422680822206,2.637189422148762,0.0023057412958266085,-0.35387661375873564,-0.29960370721544044,-1.354244111985054,1.8339771148461872,0.44365685543781047,-1.0666581038267167,1.1377595104592066
002,1,external,0,right,2200,375.3,external-action,1330.408515,NA,1000,2200,-58.39999999999995,1,2200,1000,4840000,78,1200,1200,1440000,different,left,3.342422680822206,3.34242268082221,3,2.5743785644130823,0.0026645350386357578,-1.131053775547335,-1.2214441750312013,0.43698137828845185,0.19095272497087507,-1.3448853150698115,1.1090418695416857,1.2299738683965173
002,1,external,0,left,1000,350.8,external-action,1689.186447,NA,2200,1000,-24.500000000000018,1,1000,2200,1000000,79,-1200,-1200,1440000,different,right,3,3,3.342422680822206,2.5450595846940027,0.0028506271379703536,-1.4570955643113879,-1.6517427405093839,-1.354244111985054,1.8339771148461872,0.44365685543781047,-1.0666581038267167,1.1377595104592066
002,1,external,0,left,1000,416.7,external-action,1743.231428,NA,1000,2200,65.90000000000002,1,1000,1000,1000000,80,0,0,0,same,left,3,3,3,2.619823500457278,0.0023998080153587713,-0.5801096916766499,-0.5544738037757633,-1.354244111985054,1.8339771148461872,-1.3448853150698115,0.02119188285748444,4.490958990453429e-4
002,1,external,1,right,2800,441.40000000000003,external-action,1648.0881009999998,NA,2800,2200,40.00000000000003,1,2800,2800,7840000,83,0,0,0,same,right,3.4471580313422194,3.44715803134222,3.4471580313422194,2.644832328825636,0.0022655188038060714,-0.2514063372900327,-0.18743296284938027,1.3325941234252048,1.7758070977873899,1.3379279406916214,0.0078694525723197635,6.192828378799014e-5
002,1,external,1,left,1000,400.3,external-action,1597.909536,NA,2800,2800,-41.100000000000016,1,1000,2800,1000000,84,-1800,-1800,3240000,different,right,3,3,3.4471580313422194,2.602385590105105,0.002498126405196103,-0.7983580727268729,-0.8104004383780639,-1.354244111985054,1.8339771148461872,1.3379279406916214,-1.8099740916335456,3.2760062123846785
002,1,external,1,right,1000,334.2,external-action,1366.981164,NA,1000,2800,-66.1,1,1000,1000,1000000,85,0,0,0,different,left,3,3,3,2.5240064455573723,0.0029922202274087375,-1.6780055109841752,-1.9607281027595354,-1.354244111985054,1.8339771148461872,-1.3448853150698115,0.0078694525723197635,6.192828378799014e-5
002,1,external,1,left,2200,385.29999999999995,external-action,1264.7583220000001,NA,1000,1000,51.09999999999998,1,2200,1000,4840000,86,1200,1200,1440000,different,right,3.342422680822206,3.34242268082221,3,2.5857990090130007,0.0025953802232026994,-0.9979754944191509,-1.0538325809186684,0.43698137828845185,0.19095272497087507,-1.3448853150698115,1.2197651487095633,1.4878270180064632
002,1,external,1,right,1600,373.3,external-action,1550.9682090000001,NA,2200,1000,-11.99999999999995,1,1600,2200,2560000,87,-600,-600,360000,different,left,3.2041199826559246,3.20411998265592,3.342422680822206,2.5720579899263045,0.002678810608090008,-1.157669431772972,-1.2555019724823162,-0.4586313668483011,0.21034273065714093,0.44365685543781047,-0.598078395496302,0.3576977671594311
002,1,external,1,left,1000,399.8,external-action,1639.2078020000001,NA,1600,2200,26.49999999999996,1,1000,1600,1000000,88,-600,-600,360000,different,right,3,3,3.2041199826559246,2.601842789782098,0.0025012506253126563,-0.8050119867832821,-0.8183668206522436,-1.354244111985054,1.8339771148461872,-0.45061422981600047,-0.598078395496302,0.3576977671594311
002,1,external,1,left,2800,439.5,external-action,1519.70928,NA,1000,1600,39.70000000000001,1,2800,1000,7840000,89,1800,1800,3240000,same,left,3.4471580313422194,3.44715803134222,3,2.642958879409791,0.0022753128555176336,-0.27669121070438824,-0.2149285511631009,1.3325941234252048,1.7758070977873899,-1.3448853150698115,1.825712996778185,3.333227946604781
002,1,external,1,left,2200,417.5,external-action,1557.861854,NA,2800,1000,-22.00000000000002,1,2200,2800,4840000,90,-600,-600,360000,same,left,3.342422680822206,3.34242268082221,3.4471580313422194,2.620656479819621,0.0023952095808383233,-0.569463429186395,-0.5422486230865542,0.43698137828845185,0.19095272497087507,1.3379279406916214,-0.598078395496302,0.3576977671594311
002,1,external,1,left,2200,429.70000000000005,external-action,1748.915965,NA,2200,2800,12.20000000000004,1,2200,2200,4840000,91,0,0,0,same,left,3.342422680822206,3.34242268082221,3.342422680822206,2.633165353683903,0.0023272050267628577,-0.40710792621000885,-0.358662750347421,0.43698137828845185,0.19095272497087507,0.44365685543781047,0.0078694525723197635,6.192828378799014e-5
002,1,external,1,left,2200,421.3,external-action,1531.0156299999999,NA,2200,2200,-8.40000000000001,1,2200,2200,4840000,92,0,0,0,same,left,3.342422680822206,3.34242268082221,3.342422680822206,2.6245914591268478,0.0023736055067647755,-0.5188936823576846,-0.48449709259982915,0.43698137828845185,0.19095272497087507,0.44365685543781047,0.0078694525723197635,6.192828378799014e-5
002,1,external,1,left,1600,443.2,external-action,1424.7879480000001,NA,2200,2200,21.89999999999997,1,1600,2200,2560000,93,-600,-600,360000,same,left,3.2041199826559246,3.20411998265592,3.342422680822206,2.646599751720373,0.002256317689530686,-0.22745224668696,-0.16149346756388278,-0.4586313668483011,0.21034273065714093,0.44365685543781047,-0.598078395496302,0.3576977671594311
002,1,external,1,right,1600,355.8,external-action,1278.356364,NA,1600,2200,-87.39999999999998,1,1600,1600,2560000,94,0,0,0,different,left,3.2041199826559246,3.20411998265592,3.2041199826559246,2.5512059437479064,0.0028105677346824056,-1.3905564237472956,-1.56153600381017,-0.4586313668483011,0.21034273065714093,-0.45061422981600047,0.0078694525723197635,6.192828378799014e-5
002,1,external,1,right,2800,483.09999999999997,external-action,1732.882001,NA,1600,1600,127.29999999999997,1,2800,1600,7840000,95,1200,1200,1440000,same,right,3.4471580313422194,3.44715803134222,3.2041199826559246,2.6840370374865197,0.00206996481059822,0.30353009501449735,0.3879530177817988,1.3325941234252048,1.7758070977873899,-0.45061422981600047,1.2197651487095633,1.4878270180064632
002,1,external,1,left,2200,360.70000000000005,external-action,1308.197492,NA,2800,1600,-122.39999999999995,1,2200,2800,4840000,96,-600,-600,360000,different,right,3.342422680822206,3.34242268082221,3.4471580313422194,2.5571461423183632,0.0027723870252287217,-1.3253480659944845,-1.4743549713181106,0.43698137828845185,0.19095272497087507,1.3379279406916214,-0.598078395496302,0.3576977671594311
002,1,external,1,left,2800,456.4,external-action,1466.752023,NA,2200,2800,95.69999999999996,1,2800,2200,7840000,97,600,600,360000,same,left,3.4471580313422194,3.44715803134222,3.342422680822206,2.659345635746177,0.0021910604732690623,-0.05178891559775611,0.025570873167100685,1.3325941234252048,1.7758070977873899,0.44365685543781047,0.6138173006409416,0.37677167856613214
002,1,external,1,left,1000,422.70000000000005,external-action,1613.4058710000002,NA,2800,2200,-33.69999999999995,1,1000,2800,1000000,98,-1800,-1800,3240000,same,left,3,3,3.4471580313422194,2.626032247829019,0.002365744026496333,-0.5002627229997383,-0.463351427994795,-1.354244111985054,1.8339771148461872,1.3379279406916214,-1.8099740916335456,3.2760062123846785
002,1,external,1,right,1000,411.5,external-action,1630.257016,NA,1000,2800,-11.20000000000004,1,1000,1000,1000000,99,0,0,0,different,left,3,3,3,2.6143698395482886,0.002430133657351154,-0.6493103978633059,-0.6345141901816882,-1.354244111985054,1.8339771148461872,-1.3448853150698115,0.0078694525723197635,6.192828378799014e-5
002,1,external,1,right,2200,408.1,external-action,1543.282624,NA,1000,1000,-3.3999999999999497,1,2200,1000,4840000,100,1200,1200,1440000,same,right,3.342422680822206,3.34242268082221,3,2.610766594773271,0.0024503798088703747,-0.6945570134468885,-0.6873970351037388,0.43698137828845185,0.19095272497087507,-1.3448853150698115,1.2197651487095633,1.4878270180064632
002,1,external,1,left,1000,384.79999999999995,external-action,1671.533019,NA,2200,1000,-23.30000000000004,1,1000,2200,1000000,101,-1200,-1200,1440000,different,right,3,3,3.342422680822206,2.5852350633657752,0.002598752598752599,-1.00462940847556,-1.0621093015049201,-1.354244111985054,1.8339771148461872,0.44365685543781047,-1.2040262435649238,1.4496791951930612
002,1,external,1,right,2200,324.29999999999995,external-action,1613.558828,NA,1000,2200,-60.5,1,2200,1000,4840000,102,1200,1200,1440000,different,left,3.342422680822206,3.34242268082221,3,2.5109469486729727,0.0030835646006783846,-1.8097530093010787,-2.1523951672026747,0.43698137828845185,0.19095272497087507,-1.3448853150698115,1.2197651487095633,1.4878270180064632
002,1,external,1,left,1000,406.5,external-action,1434.4146369999999,NA,2200,1000,82.19999999999999,1,1000,2200,1000000,103,-1200,-1200,1440000,different,right,3,3,3.342422680822206,2.609060549930087,0.0024600246002460025,-0.7158495384273984,-0.7124357184309666,-1.354244111985054,1.8339771148461872,0.44365685543781047,-1.2040262435649238,1.4496791951930612
002,1,external,1,right,1600,354.9,external-action,1490.02067,NA,1000,2200,-51.59999999999998,1,1600,1000,2560000,104,600,600,360000,different,left,3.2041199826559246,3.20411998265592,3,2.550105999347593,0.0028176951253874333,-1.4025334690488327,-1.5776792837638254,-0.4586313668483011,0.21034273065714093,-1.3448853150698115,0.6138173006409416,0.37677167856613214
002,1,external,1,left,1600,367.4,external-action,1575.546928,NA,1600,1000,12.500000000000009,1,1600,1600,2560000,105,0,0,0,different,right,3.2041199826559246,3.20411998265592,3.2041199826559246,2.5651391519697895,0.0027218290691344584,-1.2361856176386015,-1.3570459578457292,-0.4586313668483011,0.21034273065714093,-0.45061422981600047,0.0078694525723197635,6.192828378799014e-5
002,1,external,1,left,2200,418.9,external-action,1716.926287,NA,1600,1600,51.49999999999999,1,2200,1600,4840000,106,600,600,360000,same,left,3.342422680822206,3.34242268082221,3.2041199826559246,2.6221103603612193,0.0023872045834328003,-0.5508324698284494,-0.5209108167433362,0.43698137828845185,0.19095272497087507,-0.45061422981600047,0.6138173006409416,0.37677167856613214
002,1,external,1,right,2200,443,external-action,1271.697775,NA,2200,1600,24.10000000000001,1,2200,2200,4840000,107,0,0,0,different,left,3.342422680822206,3.34242268082221,3.342422680822206,2.6464037262230695,0.002257336343115124,-0.23011381230952355,-0.16437042614481293,0.43698137828845185,0.19095272497087507,0.44365685543781047,0.0078694525723197635,6.192828378799014e-5
002,1,external,1,left,2200,421.3,external-action,1710.442368,NA,2200,2200,-21.69999999999999,1,2200,2200,4840000,108,0,0,0,different,right,3.342422680822206,3.34242268082221,3.342422680822206,2.6245914591268478,0.0023736055067647755,-0.5188936823576846,-0.48449709259982915,0.43698137828845185,0.19095272497087507,0.44365685543781047,0.0078694525723197635,6.192828378799014e-5
002,1,external,1,left,2800,404.7,external-action,1358.919849,NA,2200,2200,-16.6,1,2800,2200,7840000,109,600,600,360000,same,left,3.4471580313422194,3.44715803134222,3.342422680822206,2.6071332043915665,0.002470966147763776,-0.7398036290304718,-0.7407223105413508,1.3325941234252048,1.7758070977873899,0.44365685543781047,0.6138173006409416,0.37677167856613214
002,1,external,1,right,2800,293.9,external-action,1536.48122,NA,2800,2200,-110.8,1,2800,2800,7840000,110,0,0,0,different,left,3.4471580313422194,3.44715803134222,3.4471580313422194,2.4681995860726125,0.0034025178632187823,-2.21431098393076,-2.779774734334766,1.3325941234252048,1.7758070977873899,1.3379279406916214,0.0078694525723197635,6.192828378799014e-5
002,1,external,1,left,1600,387.5,external-action,1560.911133,NA,2800,2800,93.60000000000002,1,1600,2800,2560000,111,-1200,-1200,1440000,different,right,3.2041199826559246,3.20411998265592,3.4471580313422194,2.588271706842329,0.0025806451612903226,-0.9686982725709496,-1.017542152704057,-0.4586313668483011,0.21034273065714093,1.3379279406916214,-1.2040262435649238,1.4496791951930612
002,1,external,1,right,1600,402.7,external-action,1478.000609,NA,1600,2800,15.19999999999999,1,1600,1600,2560000,112,0,0,0,different,left,3.2041199826559246,3.20411998265592,3.2041199826559246,2.6049816296074315,0.0024832381425378696,-0.7664192852561088,-0.7722997921591651,-0.4586313668483011,0.21034273065714093,-0.45061422981600047,0.0078694525723197635,6.192828378799014e-5
002,1,external,1,right,1000,466.6,external-action,1720.740258,NA,1600,1600,76.50000000000001,1,1000,1600,1000000,114,-600,-600,360000,same,right,3,3,3.2041199826559246,2.668944734457734,0.0021431633090441492,0.08395093115299307,0.16645157382730924,-1.354244111985054,1.8339771148461872,-0.45061422981600047,-0.598078395496302,0.3576977671594311
002,1,external,1,left,2800,330.7,external-action,1648.9265719999999,NA,1000,1600,-135.90000000000003,1,2800,1000,7840000,115,1800,1800,3240000,different,right,3.4471580313422194,3.44715803134222,3,2.519434194913703,0.0030238887208950713,-1.72458290937904,-2.0278325147079945,1.3325941234252048,1.7758070977873899,-1.3448853150698115,1.825712996778185,3.333227946604781
002,1,external,1,left,1600,446.7,external-action,1355.9991149999998,NA,2800,1000,116,1,1600,2800,2560000,116,-1200,-1200,1440000,same,left,3.2041199826559246,3.20411998265592,3.4471580313422194,2.6500159524718385,0.0022386389075442132,-0.1808748482920953,-0.11135576506448758,-0.4586313668483011,0.21034273065714093,1.3379279406916214,-1.2040262435649238,1.4496791951930612
002,1,external,1,right,1000,334.8,external-action,1501.653521,NA,1600,2800,-111.9,1,1000,1600,1000000,117,-600,-600,360000,different,left,3,3,3.2041199826559246,2.5247854493212225,0.0029868578255675027,-1.6700208141164838,-1.9492950922899142,-1.354244111985054,1.8339771148461872,-0.45061422981600047,-0.598078395496302,0.3576977671594311
002,1,external,1,right,2800,566.6999999999999,external-action,1345.104845,NA,1000,1600,231.9,1,2800,1000,7840000,118,1800,1800,3240000,same,right,3.4471580313422194,3.44715803134222,3,2.753353212641496,0.0017646020822304573,1.4160645252461226,1.40526845711173,1.3325941234252048,1.7758070977873899,-1.3448853150698115,1.825712996778185,3.333227946604781
002,1,external,1,right,1000,477.7,external-action,1681.708242,NA,2800,1000,-88.99999999999997,1,1000,2800,1000000,119,-1800,-1800,3240000,same,right,3,3,3.4471580313422194,2.679155241283354,0.0020933640360058614,0.23166782320527782,0.3163055756365983,-1.354244111985054,1.8339771148461872,1.3379279406916214,-1.8099740916335456,3.2760062123846785
002,1,external,1,left,1000,417.2,external-action,1678.193582,NA,1000,2800,-60.5,1,1000,1000,1000000,120,0,0,0,different,right,3,3,3,2.6203442997544935,0.0023969319271332696,-0.5734557776202407,-0.5468303184757619,-1.354244111985054,1.8339771148461872,-1.3448853150698115,0.0078694525723197635,6.192828378799014e-5
002,1,external,1,left,2800,559.1,external-action,1512.824387,NA,1000,1000,141.90000000000006,1,2800,1000,7840000,121,1800,1800,3240000,same,left,3.4471580313422194,3.44715803134222,3,2.747489492258673,0.0017885888034340903,1.314925031588703,1.3192098529832887,1.3325941234252048,1.7758070977873899,-1.3448853150698115,1.825712996778185,3.333227946604781
002,1,external,1,left,1000,461.7,external-action,1607.057745,NA,2800,1000,-97.40000000000005,1,1000,2800,1000000,122,-1800,-1800,3240000,same,left,3,3,3.4471580313422194,2.664359874551141,0.0021659085986571367,0.01874257340018202,0.09916210265101419,-1.354244111985054,1.8339771148461872,1.3379279406916214,-1.8099740916335456,3.2760062123846785
002,1,external,1,right,2800,320.79999999999995,external-action,1313.3295810000002,NA,1000,2800,-140.90000000000006,1,2800,1000,7840000,123,1800,1800,3240000,different,left,3.4471580313422194,3.44715803134222,3,2.506234359612126,0.0031172069825436415,-1.8563304076959433,-2.221559249036359,1.3325941234252048,1.7758070977873899,-1.3448853150698115,1.825712996778185,3.333227946604781
002,1,external,1,right,1600,406.7,external-action,1381.04414,NA,2800,1000,85.90000000000003,1,1600,2800,2560000,124,-1200,-1200,1440000,same,right,3.2041199826559246,3.20411998265592,3.4471580313422194,2.6092741724045876,0.0024588148512417014,-0.7131879728048348,-0.7093004986787047,-0.4586313668483011,0.21034273065714093,1.3379279406916214,-1.2040262435649238,1.4496791951930612
002,1,external,1,right,2200,385.1,external-action,1626.125195,NA,1600,2800,-21.6,1,2200,1600,4840000,125,600,600,360000,same,right,3.342422680822206,3.34242268082221,3.2041199826559246,2.585573518622731,0.002596728122565567,-1.0006370600417136,-1.0571419795536763,0.43698137828845185,0.19095272497087507,-0.45061422981600047,0.6138173006409416,0.37677167856613214
002,1,external,1,right,1000,371.2,external-action,1580.1477530000002,NA,2200,1600,-13.90000000000002,1,1000,2200,1000000,126,-1200,-1200,1440000,same,right,3,3,3.342422680822206,2.5696079675468244,0.0026939655172413795,-1.1856158708098912,-1.291459605571222,-1.354244111985054,1.8339771148461872,0.44365685543781047,-1.2040262435649238,1.4496791951930612
002,1,external,1,right,2800,460.3,external-action,1353.354297,NA,1000,2200,89.10000000000001,1,2800,1000,7840000,127,1800,1800,3240000,same,right,3.4471580313422194,3.44715803134222,3,2.663040974893974,0.0021724961981316533,1.1161404223644064e-4,0.07980533662687891,1.3325941234252048,1.7758070977873899,-1.3448853150698115,1.825712996778185,3.333227946604781
002,1,external,1,right,2800,500,external-action,1435.0696659999999,NA,2800,1000,39.70000000000001,1,2800,2800,7840000,128,0,0,0,same,right,3.4471580313422194,3.44715803134222,3.4471580313422194,2.6989700043360187,0.002,0.5284323901211303,0.6071159721287799,1.3325941234252048,1.7758070977873899,1.3379279406916214,0.0078694525723197635,6.192828378799014e-5
002,1,external,1,left,1600,330.40000000000003,external-action,1741.163705,NA,2800,2800,-169.59999999999997,1,1600,2800,2560000,129,-1200,-1200,1440000,different,right,3.2041199826559246,3.20411998265592,3.4471580313422194,2.5190400386483445,0.0030266343825665855,-1.7285752578128848,-2.033617329772606,-0.4586313668483011,0.21034273065714093,1.3379279406916214,-1.2040262435649238,1.4496791951930612
002,1,external,1,left,2200,502.09999999999997,external-action,1736.622415,NA,1600,2800,171.69999999999996,1,2200,1600,4840000,130,600,600,360000,same,left,3.342422680822206,3.34242268082221,3.2041199826559246,2.700790221374347,0.0019916351324437364,0.5563788291580486,0.6338302980690459,0.43698137828845185,0.19095272497087507,-0.45061422981600047,0.6138173006409416,0.37677167856613214
002,1,external,1,right,2200,340.4,external-action,1661.1462720000002,NA,2200,1600,-161.70000000000002,1,2200,2200,4840000,131,0,0,0,different,left,3.342422680822206,3.34242268082221,3.342422680822206,2.53198955141255,0.002937720329024677,-1.5954969766847007,-1.8435644418662451,0.43698137828845185,0.19095272497087507,0.44365685543781047,0.0078694525723197635,6.192828378799014e-5
002,1,external,1,left,1000,400.7,external-action,1477.290176,NA,2200,2200,60.30000000000002,1,1000,2200,1000000,132,-1200,-1200,1440000,different,right,3,3,3.342422680822206,2.6028193424326997,0.0024956326428749688,-0.7930349414817457,-0.8040344936513002,-1.354244111985054,1.8339771148461872,0.44365685543781047,-1.2040262435649238,1.4496791951930612
002,1,external,1,left,1000,549.6999999999999,external-action,1583.459738,NA,1000,2200,148.99999999999997,1,1000,1000,1000000,133,0,0,0,same,left,3,3,3,2.7401257369657306,0.001819174094960888,1.1898314473282081,1.2111360601894898,-1.354244111985054,1.8339771148461872,-1.3448853150698115,0.0078694525723197635,6.192828378799014e-5
002,1,external,1,right,1000,466.5,external-action,1272.457232,NA,1000,1000,-83.19999999999995,1,1000,1000,1000000,134,0,0,0,different,left,3,3,3,2.668851648082519,0.0021436227224008574,0.08262014834171091,0.16508539621456797,-1.354244111985054,1.8339771148461872,-1.3448853150698115,0.0078694525723197635,6.192828378799014e-5
002,1,external,1,left,1600,376,external-action,1391.378159,NA,1000,1000,-90.50000000000003,1,1600,1000,2560000,135,600,600,360000,different,right,3.2041199826559246,3.20411998265592,3,2.575187844927661,0.0026595744680851063,-1.1217382958683622,-1.2095668093169378,-0.4586313668483011,0.21034273065714093,-1.3448853150698115,0.6138173006409416,0.37677167856613214
002,1,external,1,left,1600,435.7,external-action,1365.7003320000001,NA,1600,1000,59.69999999999997,1,1600,1600,2560000,136,0,0,0,same,left,3.2041199826559246,3.20411998265592,3.2041199826559246,2.639187559935754,0.0022951572182694515,-0.32726095753309864,-0.27027813614821533,-0.4586313668483011,0.21034273065714093,-0.45061422981600047,0.0078694525723197635,6.192828378799014e-5
002,1,external,1,left,2200,450.2,external-action,1544.332558,NA,1600,1600,14.500000000000009,1,2200,1600,4840000,137,600,600,360000,same,left,3.342422680822206,3.34242268082221,3.2041199826559246,2.6534054906645013,0.002221235006663705,-0.13429744989723058,-0.061609374299492814,0.43698137828845185,0.19095272497087507,-0.45061422981600047,0.6138173006409416,0.37677167856613214
002,1,external,1,right,1600,417.5,external-action,1402.177386,NA,2200,1600,-32.70000000000001,1,1600,2200,2560000,138,-600,-600,360000,different,left,3.2041199826559246,3.20411998265592,3.342422680822206,2.620656479819621,0.0023952095808383233,-0.569463429186395,-0.5422486230865542,-0.4586313668483011,0.21034273065714093,0.44365685543781047,-0.598078395496302,0.3576977671594311
002,1,external,1,right,1000,512.5,external-action,1346.695895,NA,1600,2200,94.99999999999996,1,1000,1600,1000000,139,-600,-600,360000,same,right,3,3,3.2041199826559246,2.7096938697277917,0.001951219512195122,0.6947802415313613,0.7645042557141777,-1.354244111985054,1.8339771148461872,-0.45061422981600047,-0.598078395496302,0.3576977671594311
002,1,external,1,left,2800,425.59999999999997,external-action,1267.945734,NA,1000,1600,-86.89999999999998,1,2800,1000,7840000,140,1800,1800,3240000,different,right,3.4471580313422194,3.44715803134222,3,2.6290016192869916,0.0023496240601503762,-0.4616700214725657,-0.4197715936697286,1.3325941234252048,1.7758070977873899,-1.3448853150698115,1.825712996778185,3.333227946604781
002,1,external,1,left,2800,491.4,external-action,1618.8186719999999,NA,2800,1000,65.80000000000003,1,2800,2800,7840000,141,0,0,0,same,left,3.4471580313422194,3.44715803134222,3.4471580313422194,2.691435152144062,0.0020350020350020353,0.41398506835089094,0.49653108410216157,1.3325941234252048,1.7758070977873899,1.3379279406916214,0.0078694525723197635,6.192828378799014e-5
002,1,external,1,left,1600,450,external-action,1433.495099,NA,2800,2800,-41.39999999999999,1,1600,2800,2560000,142,-1200,-1200,1440000,same,left,3.2041199826559246,3.20411998265592,3.4471580313422194,2.6532125137753435,0.0022222222222222222,-0.13695901551979414,-0.06444159013273984,-0.4586313668483011,0.21034273065714093,1.3379279406916214,-1.2040262435649238,1.4496791951930612
002,1,external,1,left,1000,604.4000000000001,external-action,1271.1988039999999,NA,1600,2800,154.40000000000003,1,1000,1600,1000000,143,-600,-600,360000,same,left,3,3,3.2041199826559246,2.781324455666988,0.0016545334215751157,1.9177696450993815,1.8157870312174367,-1.354244111985054,1.8339771148461872,-0.45061422981600047,-0.598078395496302,0.3576977671594311
002,1,external,1,left,1600,413.2,external-action,1261.7209149999999,NA,1000,1600,-191.20000000000005,1,1600,1000,2560000,144,600,600,360000,same,left,3.2041199826559246,3.20411998265592,3,2.6161603128475828,0.002420135527589545,-0.6266870900715147,-0.6082363967661181,-0.4586313668483011,0.21034273065714093,-1.3448853150698115,0.6138173006409416,0.37677167856613214
002,1,external,1,left,2800,400.6,external-action,1497.461763,NA,1600,1000,-12.6,1,2800,1600,7840000,145,1200,1200,1440000,same,left,3.4471580313422194,3.44715803134222,3.2041199826559246,2.6027109449575576,0.002496255616575137,-0.7943657242930271,-0.8056253838699241,1.3325941234252048,1.7758070977873899,-0.45061422981600047,1.2197651487095633,1.4878270180064632
002,1,external,1,right,2800,351.6,external-action,1702.584304,NA,2800,1600,-48.999999999999986,1,2800,2800,7840000,146,0,0,0,different,left,3.4471580313422194,3.44715803134222,3.4471580313422194,2.5460488664017342,0.002844141069397042,-1.446449301821133,-1.6372235961268238,1.3325941234252048,1.7758070977873899,1.3379279406916214,0.0078694525723197635,6.192828378799014e-5
002,1,external,1,right,1000,441.3,external-action,1561.4305749999999,NA,2800,2800,89.7,1,1000,2800,1000000,147,-1800,-1800,3240000,same,right,3,3,3.4471580313422194,2.6447339274471924,0.002266032177656923,-0.2527371201013148,-0.18887714584589382,-1.354244111985054,1.8339771148461872,1.3379279406916214,-1.8099740916335456,3.2760062123846785
002,1,external,1,left,2800,375.2,external-action,1566.2804749999998,NA,1000,2800,-66.10000000000005,1,2800,1000,7840000,148,1800,1800,3240000,different,right,3.4471580313422194,3.44715803134222,3,2.5742628297070267,0.0026652452025586353,-1.1323845583586172,-1.2231427497588674,1.3325941234252048,1.7758070977873899,-1.3448853150698115,1.825712996778185,3.333227946604781
002,1,external,1,right,2200,333.2,external-action,1565.387346,NA,2800,1000,-41.99999999999998,1,2200,2800,4840000,149,-600,-600,360000,different,left,3.342422680822206,3.34242268082221,3.4471580313422194,2.52270499273475,0.003001200480192077,-1.6913133390969937,-1.979828811173596,0.43698137828845185,0.19095272497087507,1.3379279406916214,-0.598078395496302,0.3576977671594311
002,1,external,1,right,2200,467.3,external-action,1348.449361,NA,2200,2800,134.1,1,2200,2200,4840000,150,0,0,0,same,right,3.342422680822206,3.34242268082221,3.342422680822206,2.6695957810243134,0.0021399529210357373,0.09326641083196585,0.17600662677740633,0.43698137828845185,0.19095272497087507,0.44365685543781047,0.0078694525723197635,6.192828378799014e-5
002,1,external,1,left,2800,390.79999999999995,external-action,1260.272776,NA,2200,2200,-76.50000000000001,1,2800,2200,7840000,151,600,600,360000,different,right,3.4471580313422194,3.44715803134222,3.342422680822206,2.5919545550467356,0.00255885363357216,-0.9247824397986493,-0.963491011961297,1.3325941234252048,1.7758070977873899,0.44365685543781047,0.6138173006409416,0.37677167856613214
002,1,external,1,left,2200,488.70000000000005,external-action,1342.8524790000001,NA,2800,2200,97.90000000000005,1,2200,2800,4840000,152,-600,-600,360000,same,left,3.342422680822206,3.34242268082221,3.4471580313422194,2.689042339028172,0.002046245140167792,0.37805393244628194,0.4614130799597847,0.43698137828845185,0.19095272497087507,1.3379279406916214,-0.598078395496302,0.3576977671594311
002,1,external,1,right,2800,368.09999999999997,external-action,1304.940058,NA,2200,2800,-120.60000000000004,1,2800,2200,7840000,153,600,600,360000,different,left,3.4471580313422194,3.44715803134222,3.342422680822206,2.5659658174466666,0.0027166530834012497,-1.2268701379596287,-1.34491344258637,1.3325941234252048,1.7758070977873899,0.44365685543781047,0.6138173006409416,0.37677167856613214
002,1,external,1,right,1600,408.1,external-action,1712.898247,NA,2800,2200,40.00000000000003,1,1600,2800,2560000,154,-1200,-1200,1440000,same,right,3.2041199826559246,3.20411998265592,3.4471580313422194,2.610766594773271,0.0024503798088703747,-0.6945570134468885,-0.6873970351037388,-0.4586313668483011,0.21034273065714093,1.3379279406916214,-1.2040262435649238,1.4496791951930612
002,1,external,1,left,1600,424.70000000000005,external-action,1625.681591,NA,1600,2800,16.6,1,1600,1600,2560000,155,0,0,0,different,right,3.2041199826559246,3.20411998265592,3.2041199826559246,2.6280822609906793,0.002354603249352484,-0.4736470667741013,-0.4332645105397589,-0.4586313668483011,0.21034273065714093,-0.45061422981600047,0.0078694525723197635,6.192828378799014e-5
002,1,external,1,right,2200,344.3,external-action,1285.941556,NA,1600,1600,-80.40000000000003,1,2200,1600,4840000,156,600,600,360000,different,left,3.342422680822206,3.34242268082221,3.2041199826559246,2.5369370227046737,0.002904443799012489,-1.543596447044708,-1.7709531225044097,0.43698137828845185,0.19095272497087507,-0.45061422981600047,0.6138173006409416,0.37677167856613214
002,1,external,1,right,1600,446.29999999999995,external-action,1428.858491,NA,2200,1600,101.99999999999999,1,1600,2200,2560000,157,-600,-600,360000,same,right,3.2041199826559246,3.20411998265592,3.342422680822206,2.6496268868405295,0.0022406453058480846,-0.18619797953722314,-0.11706586768856325,-0.4586313668483011,0.21034273065714093,0.44365685543781047,-0.598078395496302,0.3576977671594311
002,1,external,1,right,1600,419,external-action,1400.716783,NA,1600,2200,-27.29999999999999,1,1600,1600,2560000,158,0,0,0,same,right,3.2041199826559246,3.20411998265592,3.2041199826559246,2.622214022966295,0.002386634844868735,-0.5495016870171673,-0.5193894176126271,-0.4586313668483011,0.21034273065714093,-0.45061422981600047,0.0078694525723197635,6.192828378799014e-5
002,1,external,1,right,1000,400.5,external-action,1435.5185800000002,NA,1600,1600,-18.49999999999996,1,1000,1600,1000000,159,-600,-600,360000,same,right,3,3,3.2041199826559246,2.6026025204202563,0.0024968789013732834,-0.7956965071043093,-0.8072166712649976,-1.354244111985054,1.8339771148461872,-0.45061422981600047,-0.598078395496302,0.3576977671594311
002,1,external,1,right,2200,450.29999999999995,external-action,1296.637298,NA,1000,1600,49.79999999999995,1,2200,1000,4840000,160,1200,1200,1440000,same,right,3.342422680822206,3.34242268082221,3,2.653501946962933,0.0022207417277370642,-0.1329666670859492,-0.06019373817422088,0.43698137828845185,0.19095272497087507,-1.3448853150698115,1.2197651487095633,1.4878270180064632
002,1,action,2,left,2200,543,external-action,NA,440.59999999999997,2800,1000,67.80000000000003,2,2200,2800,4840000,163,-600,-600,360000,same,left,3.342422680822206,3.34242268082221,3.4471580313422194,2.734799829588847,0.001841620626151013,1.1006689989723253,1.1329706422213044,0.43698137828845185,0.19095272497087507,1.3379279406916214,-0.6743981743904683,0.45481289762119653
002,1,action,2,left,1600,567.1,external-action,NA,342.7,2200,2800,24.10000000000001,2,1600,2200,2560000,164,-600,-600,360000,same,left,3.2041199826559246,3.20411998265592,3.342422680822206,2.753659647285999,0.0017633574325515782,1.421387656491251,1.4097658301173992,-0.4586313668483011,0.21034273065714093,0.44365685543781047,-0.6743981743904683,0.45481289762119653
002,1,action,2,left,1000,484.70000000000005,external-action,NA,467.6,1600,2200,-82.40000000000003,2,1000,1600,1000000,165,-600,-600,360000,same,left,3,3,3.2041199826559246,2.6854730197227594,0.0020631318341242004,0.324822619995008,0.4090281405257193,-1.354244111985054,1.8339771148461872,-0.45061422981600047,-0.6743981743904683,0.45481289762119653
002,1,action,2,right,2200,441.3,external-action,NA,577.5,1000,1600,-43.399999999999984,2,2200,1000,4840000,166,1200,1200,1440000,different,left,3.342422680822206,3.34242268082221,3,2.6447339274471924,0.002266032177656923,-0.2527371201013148,-0.18887714584589382,0.43698137828845185,0.19095272497087507,-1.3448853150698115,1.3750716023286174,1.890821911530591
002,1,action,2,right,1600,469.5,external-action,NA,428.4,2200,1000,28.19999999999994,2,1600,2200,2560000,167,-600,-600,360000,same,right,3.2041199826559246,3.20411998265592,3.342422680822206,2.6716355966021297,0.002129925452609159,0.12254363268016638,0.2059438798941378,-0.4586313668483011,0.21034273065714093,0.44365685543781047,-0.6743981743904683,0.45481289762119653
002,1,action,2,right,2800,434.2,external-action,NA,467.7,1600,2200,-35.3,2,2800,1600,7840000,168,1200,1200,1440000,same,right,3.4471580313422194,3.44715803134222,3.2041199826559246,2.637689819118401,0.002303086135421465,-0.3472226997023264,-0.29225965567379636,1.3325941234252048,1.7758070977873899,-0.45061422981600047,1.3750716023286174,1.890821911530591
002,1,action,2,right,2800,558.8,external-action,NA,556.4,2800,1600,124.60000000000001,2,2800,2800,7840000,169,0,0,0,same,right,3.4471580313422194,3.44715803134222,3.4471580313422194,2.7472563974421442,0.001789549033643522,1.3109326831548567,1.3157888483598787,1.3325941234252048,1.7758070977873899,1.3379279406916214,0.008758417849226863,7.670988322165571e-5
002,1,action,2,left,2800,588.5,external-action,NA,452.79999999999995,2800,2800,29.70000000000006,2,2800,2800,7840000,170,0,0,0,different,right,3.4471580313422194,3.44715803134222,3.4471580313422194,2.7697464671794534,0.0016992353440951572,1.7061751781055665,1.6458632519780485,1.3325941234252048,1.7758070977873899,1.3379279406916214,0.008758417849226863,7.670988322165571e-5
002,1,action,2,right,2200,474.1,external-action,NA,391.29999999999995,2800,2800,-114.4,2,2200,2800,4840000,171,-600,-600,360000,different,left,3.342422680822206,3.34242268082221,3.4471580313422194,2.675869955318957,0.002109259649862898,0.18375964199913172,0.2680892375780914,0.43698137828845185,0.19095272497087507,1.3379279406916214,-0.6743981743904683,0.45481289762119653
002,1,action,2,left,2800,484.9,external-action,NA,719.4000000000001,2200,2800,10.799999999999969,2,2800,2200,7840000,172,600,600,360000,different,right,3.4471580313422194,3.44715803134222,3.342422680822206,2.6856521841155243,0.0020622808826562177,0.3274841856175708,0.4116576379342301,1.3325941234252048,1.7758070977873899,0.44365685543781047,0.6919150100889222,0.4787463811863533
002,1,action,2,right,2200,418.3,external-action,NA,354.8,2800,2200,-66.6,2,2200,2800,4840000,173,-600,-600,360000,different,left,3.342422680822206,3.34242268082221,3.4471580313422194,2.6214878645806303,0.0023906287353573988,-0.55881716669614,-0.530046845485473,0.43698137828845185,0.19095272497087507,1.3379279406916214,-0.6743981743904683,0.45481289762119653
002,1,action,2,right,1600,430.5,external-action,NA,517.9,2200,2800,12.19999999999998,2,1600,2200,2560000,174,-600,-600,360000,same,right,3.2041199826559246,3.20411998265592,3.342422680822206,2.6339731557896737,0.0023228803716608595,-0.39646166371975466,-0.346807082427395,-0.4586313668483011,0.21034273065714093,0.44365685543781047,-0.6743981743904683,0.45481289762119653
002,1,action,2,right,2800,550.2,external-action,NA,260.6,1600,2200,119.70000000000005,2,2800,1600,7840000,175,1200,1200,1440000,same,right,3.4471580313422194,3.44715803134222,3.2041199826559246,2.7405205860536648,0.001817520901490367,1.196485361384619,1.2169310434305978,1.3325941234252048,1.7758070977873899,-0.45061422981600047,1.3750716023286174,1.890821911530591
002,1,action,2,right,1000,632.6,external-action,NA,273.8,2800,1600,82.40000000000003,2,1000,2800,1000000,176,-1800,-1800,3240000,same,right,3,3,3.4471580313422194,2.801129187579704,0.0015807777426493834,2.293050397880862,2.10645020617697,-1.354244111985054,1.8339771148461872,1.3379279406916214,-2.040711358869859,4.164502850220467
002,1,action,2,left,1600,411.2,external-action,NA,305.4,1000,2800,-221.40000000000003,2,1600,1000,2560000,177,600,600,360000,different,right,3.2041199826559246,3.20411998265592,3,2.614053105987219,0.0024319066147859923,-0.6533027462971516,-0.6391627147303879,-0.4586313668483011,0.21034273065714093,-1.3448853150698115,0.6919150100889222,0.4787463811863533
002,1,action,2,right,2200,533.9000000000001,external-action,NA,301.9,1600,1000,122.70000000000005,2,2200,1600,4840000,178,600,600,360000,different,left,3.342422680822206,3.34242268082221,3.2041199826559246,2.727459920857909,0.0018730099269526125,0.9795677631456782,1.025246832323237,0.43698137828845185,0.19095272497087507,-0.45061422981600047,0.6919150100889222,0.4787463811863533
002,1,action,2,right,2200,500.6,external-action,NA,346.9,2200,1600,-33.29999999999999,2,2200,2200,4840000,179,0,0,0,same,right,3.342422680822206,3.34242268082221,3.342422680822206,2.6994908452722046,0.001997602876548142,0.5364170869888216,0.6147600685410861,0.43698137828845185,0.19095272497087507,0.44365685543781047,0.008758417849226863,7.670988322165571e-5
002,1,action,2,left,1600,501.49999999999994,external-action,NA,269.7,2200,2200,0.8999999999999,2,1600,2200,2560000,180,-600,-600,360000,different,right,3.2041199826559246,3.20411998265592,3.342422680822206,2.700270937356437,0.0019940179461615157,0.5483941322903573,0.626209051691331,-0.4586313668483011,0.21034273065714093,0.44365685543781047,-0.6743981743904683,0.45481289762119653
002,1,action,2,left,1600,539.6999999999999,external-action,NA,295.09999999999997,1600,2200,38.20000000000001,2,1600,1600,2560000,181,0,0,0,same,left,3.2041199826559246,3.20411998265592,3.2041199826559246,2.7321524180652137,0.001852881230313137,1.0567531662000234,1.094116037055472,-0.4586313668483011,0.21034273065714093,-0.45061422981600047,0.008758417849226863,7.670988322165571e-5
002,1,action,2,left,1000,626.6,external-action,NA,245.60000000000002,1600,1600,86.90000000000009,2,1000,1600,1000000,182,-600,-600,360000,same,left,3,3,3.2041199826559246,2.7969903905456865,0.0015959144589849984,2.213203429203951,2.0457073548360616,-1.354244111985054,1.8339771148461872,-0.45061422981600047,-0.6743981743904683,0.45481289762119653
002,1,action,2,left,1600,700.6,external-action,NA,412.4,1000,1600,73.99999999999996,2,1600,1000,2560000,183,600,600,360000,same,left,3.2041199826559246,3.20411998265592,3,2.8454701329816734,0.0014273479874393376,3.197982709552519,2.757217913008097,-0.4586313668483011,0.21034273065714093,-1.3448853150698115,0.6919150100889222,0.4787463811863533
002,1,action,2,right,2800,524.4,external-action,NA,384.6,1600,1000,-176.20000000000002,2,2800,1600,7840000,184,1200,1200,1440000,different,left,3.4471580313422194,3.44715803134222,3.2041199826559246,2.7196626830180466,0.001906941266209001,0.8531433960739011,0.9108110542254862,1.3325941234252048,1.7758070977873899,-0.45061422981600047,1.3750716023286174,1.890821911530591
002,1,action,2,left,1600,550.5,external-action,NA,312.7,2800,1600,26.10000000000001,2,1600,2800,2560000,185,-1200,-1200,1440000,different,right,3.2041199826559246,3.20411998265592,3.4471580313422194,2.7407573233077707,0.0018165304268846503,1.2004777098184638,1.2204055061101677,-0.4586313668483011,0.21034273065714093,1.3379279406916214,-1.3575547666301637,1.8429549444002782
002,1,action,2,right,1000,389.7,external-action,NA,261,1600,2800,-160.8,2,1000,1600,1000000,186,-600,-600,360000,different,left,3,3,3.2041199826559246,2.5907304057926903,0.0025660764690787785,-0.9394210507227491,-0.9814571783488698,-1.354244111985054,1.8339771148461872,-0.45061422981600047,-0.6743981743904683,0.45481289762119653
002,1,action,2,right,1000,578.6,external-action,NA,662.6,1000,1600,188.9,2,1000,1000,1000000,187,0,0,0,same,right,3,3,3,2.762378429311964,0.0017283097131005876,1.5744276797886636,1.5377266061893031,-1.354244111985054,1.8339771148461872,-1.3448853150698115,0.008758417849226863,7.670988322165571e-5
002,1,action,2,right,2800,433.59999999999997,external-action,NA,569.5,1000,1000,-145.00000000000003,2,2800,1000,7840000,188,1800,1800,3240000,same,right,3.4471580313422194,3.44715803134222,3,2.6370892735303304,0.0023062730627306273,-0.35520739657001776,-0.3010735334937974,1.3325941234252048,1.7758070977873899,-1.3448853150698115,2.0582281945683127,4.236303300915936
002,1,action,2,left,1000,407.1,external-action,NA,289.9,2800,1000,-26.49999999999996,2,1000,2800,1000000,189,-1800,-1800,3240000,different,right,3,3,3.4471580313422194,2.6097011023793995,0.0024563989191844753,-0.707864841559707,-0.7030346818773912,-1.354244111985054,1.8339771148461872,1.3379279406916214,-2.040711358869859,4.164502850220467
002,1,action,2,left,1000,510.90000000000003,external-action,NA,291.7,1000,2800,103.8,2,1000,1000,1000000,190,0,0,0,same,left,3,3,3,2.7083359026822635,0.0019573302016050106,0.6734877165508523,0.7445741190840428,-1.354244111985054,1.8339771148461872,-1.3448853150698115,0.008758417849226863,7.670988322165571e-5
002,1,action,2,right,2800,362.09999999999997,external-action,NA,286.8,1000,1000,-148.80000000000004,2,2800,1000,7840000,191,1800,1800,3240000,different,left,3.4471580313422194,3.44715803134222,3,2.5588285248170117,0.0027616680475006906,-1.3067171066365397,-1.449663567227983,1.3325941234252048,1.7758070977873899,-1.3448853150698115,2.0582281945683127,4.236303300915936
002,1,action,2,left,2200,473.6,external-action,NA,355.5,2800,1000,111.50000000000004,2,2200,2800,4840000,192,-600,-600,360000,different,right,3.342422680822206,3.34242268082221,3.4471580313422194,2.6754116937148633,0.002111486486486486,0.17710572794272247,0.2613635836588702,0.43698137828845185,0.19095272497087507,1.3379279406916214,-0.6743981743904683,0.45481289762119653
002,1,action,2,left,1600,566.6,external-action,NA,305.9,2200,2800,92.99999999999996,2,1600,2200,2560000,193,-600,-600,360000,same,left,3.2041199826559246,3.20411998265592,3.342422680822206,2.7532765701844184,0.0017649135192375574,1.4147337424348418,1.4041436178556828,-0.4586313668483011,0.21034273065714093,0.44365685543781047,-0.6743981743904683,0.45481289762119653
002,1,action,2,left,2200,504,external-action,NA,301.59999999999997,1600,2200,-62.59999999999999,2,2200,1600,4840000,194,600,600,360000,same,left,3.342422680822206,3.34242268082221,3.2041199826559246,2.7024305364455254,0.001984126984126984,0.5816637025724042,0.6579043016265795,0.43698137828845185,0.19095272497087507,-0.45061422981600047,0.6919150100889222,0.4787463811863533
002,1,action,2,left,2200,550.6999999999999,external-action,NA,422.5,2200,1600,46.69999999999996,2,2200,2200,4840000,195,0,0,0,same,left,3.342422680822206,3.34242268082221,3.342422680822206,2.7409150764812824,0.001815870710005448,1.2031392754410266,1.22272076281119,0.43698137828845185,0.19095272497087507,0.44365685543781047,0.008758417849226863,7.670988322165571e-5
002,1,action,2,left,1000,523.4,external-action,NA,585.2,2200,2200,-27.29999999999999,2,1000,2200,1000000,196,-1200,-1200,1440000,same,left,3,3,3.342422680822206,2.7188337183038622,0.0019105846388995033,0.8398355679610826,0.8986447943227436,-1.354244111985054,1.8339771148461872,0.44365685543781047,-1.3575547666301637,1.8429549444002782
002,1,action,2,left,2800,533.8000000000001,external-action,NA,424.70000000000005,1000,2200,10.400000000000071,2,2800,1000,7840000,197,1800,1800,3240000,same,left,3.4471580313422194,3.44715803134222,3,2.727378569451489,0.0018733608092918693,0.9782369803343961,1.0240528824035044,1.3325941234252048,1.7758070977873899,-1.3448853150698115,2.0582281945683127,4.236303300915936
002,1,action,2,left,2200,576.3000000000001,external-action,NA,284.5,2800,1000,42.499999999999986,2,2200,2800,4840000,198,-600,-600,360000,same,left,3.342422680822206,3.34242268082221,3.4471580313422194,2.760648619581356,0.0017352073572791946,1.5438196751291817,1.5123391386593046,0.43698137828845185,0.19095272497087507,1.3379279406916214,-0.6743981743904683,0.45481289762119653
002,1,action,2,right,2200,452.6,external-action,NA,284.6,2200,2800,-123.70000000000005,2,2200,2200,4840000,199,0,0,0,different,left,3.342422680822206,3.34242268082221,3.342422680822206,2.65571454961871,0.002209456473707468,-0.10235866242646577,-0.027720583996401395,0.43698137828845185,0.19095272497087507,0.44365685543781047,0.008758417849226863,7.670988322165571e-5
002,1,action,2,left,2800,508.6000000000001,external-action,NA,285.2,2200,2200,56.00000000000005,2,2800,2200,7840000,200,600,600,360000,different,right,3.4471580313422194,3.44715803134222,3.342422680822206,2.7063763558396903,0.001966181675186787,0.6428797118913703,0.7158149261167014,1.3325941234252048,1.7758070977873899,0.44365685543781047,0.6919150100889222,0.4787463811863533
002,1,action,2,left,2200,539.3,external-action,NA,269.4,2800,2200,30.69999999999995,2,2200,2800,4840000,201,-600,-600,360000,same,left,3.342422680822206,3.34242268082221,3.4471580313422194,2.7318304202881625,0.0018542555164101616,1.0514300349548962,1.0893902524995334,0.43698137828845185,0.19095272497087507,1.3379279406916214,-0.6743981743904683,0.45481289762119653
002,1,action,2,left,1000,572.5,external-action,NA,288.7,2200,2800,33.20000000000001,2,1000,2200,1000000,202,-1200,-1200,1440000,same,left,3,3,3.342422680822206,2.7577754910119254,0.0017467248908296944,1.4932499283004705,1.4701718083597473,-1.354244111985054,1.8339771148461872,0.44365685543781047,-1.3575547666301637,1.8429549444002782
002,1,action,2,left,2800,539.1,external-action,NA,342.6,1000,2200,-33.39999999999998,2,2800,1000,7840000,203,1800,1800,3240000,same,left,3.4471580313422194,3.44715803134222,3,2.7316693318286362,0.001854943424225561,1.0487684693323334,1.0870260456371739,1.3325941234252048,1.7758070977873899,-1.3448853150698115,2.0582281945683127,4.236303300915936
002,1,action,2,left,2800,567.3000000000001,external-action,NA,287.5,2800,1000,28.2,2,2800,2800,7840000,204,0,0,0,same,left,3.4471580313422194,3.44715803134222,3.4471580313422194,2.7538127835647024,0.00176273576590869,1.4240492221138155,1.4120133271885849,1.3325941234252048,1.7758070977873899,1.3379279406916214,0.008758417849226863,7.670988322165571e-5
002,1,action,2,right,1600,502.29999999999995,external-action,NA,374.8,2800,2800,-65.00000000000006,2,1600,2800,2560000,205,-1200,-1200,1440000,different,left,3.2041199826559246,3.20411998265592,3.4471580313422194,2.700963178159549,0.001990842126219391,0.5590403947806122,0.6363686898301278,-0.4586313668483011,0.21034273065714093,1.3379279406916214,-1.3575547666301637,1.8429549444002782
002,1,action,2,right,1000,517.3,external-action,NA,251.5,1600,2800,15.00000000000001,2,1000,1600,1000000,206,-600,-600,360000,same,right,3,3,3.2041199826559246,2.7137424784090824,0.001933114247052001,0.7586578164728895,0.82392346212702,-1.354244111985054,1.8339771148461872,-0.45061422981600047,-0.6743981743904683,0.45481289762119653
002,1,action,2,right,1600,467.7,external-action,NA,386.7,1000,1600,-49.59999999999998,2,1600,1000,2560000,207,600,600,360000,same,right,3.2041199826559246,3.20411998265592,3,2.669967369908504,0.0021381227282446015,0.09858954207709295,0.18146023278098838,-0.4586313668483011,0.21034273065714093,-1.3448853150698115,0.6919150100889222,0.4787463811863533
002,1,action,2,right,2800,507.70000000000005,external-action,NA,337.6,1600,1000,40.00000000000003,2,2800,1600,7840000,208,1200,1200,1440000,same,right,3.4471580313422194,3.44715803134222,3.2041199826559246,2.705607163404605,0.0019696671262556626,0.6309026665898332,0.7045259111316933,1.3325941234252048,1.7758070977873899,-0.45061422981600047,1.3750716023286174,1.890821911530591
002,1,action,2,left,2800,506.29999999999995,external-action,NA,322.90000000000003,2800,1600,-1.40000000000006,2,2800,2800,7840000,209,0,0,0,different,right,3.4471580313422194,3.44715803134222,3.4471580313422194,2.704407927386841,0.0019751135690302193,0.6122717072318862,0.686925382632474,1.3325941234252048,1.7758070977873899,1.3379279406916214,0.008758417849226863,7.670988322165571e-5
002,1,action,2,left,2200,592.4000000000001,external-action,NA,275.9,2800,2800,86.10000000000007,2,2200,2800,4840000,210,-600,-600,360000,same,left,3.342422680822206,3.34242268082221,3.4471580313422194,2.772615049849171,0.0016880486158001348,1.7580757077455598,1.687963864603795,0.43698137828845185,0.19095272497087507,1.3379279406916214,-0.6743981743904683,0.45481289762119653
002,1,action,2,right,2200,384.2,external-action,NA,310.3,2200,2800,-208.20000000000005,2,2200,2200,4840000,211,0,0,0,different,left,3.342422680822206,3.34242268082221,3.342422680822206,2.584557360525675,0.0026028110359187923,-1.0126141053432507,-1.0720555739437905,0.43698137828845185,0.19095272497087507,0.44365685543781047,0.008758417849226863,7.670988322165571e-5
002,1,action,2,left,1600,466.2,external-action,NA,408.7,2200,2200,82.00000000000001,2,1600,2200,2560000,212,-600,-600,360000,different,right,3.2041199826559246,3.20411998265592,3.342422680822206,2.668572269184558,0.002145002145002145,0.07862779990786521,0.16098510554383808,-0.4586313668483011,0.21034273065714093,0.44365685543781047,-0.6743981743904683,0.45481289762119653
002,1,action,2,right,2800,409.9,external-action,NA,352.9,1600,2200,-56.30000000000002,2,2800,1600,7840000,213,1200,1200,1440000,different,left,3.4471580313422194,3.44715803134222,3.2041199826559246,2.6126779183165016,0.0024396194193705783,-0.6706029228438158,-0.6593455890201081,1.3325941234252048,1.7758070977873899,-0.45061422981600047,1.3750716023286174,1.890821911530591
002,1,action,2,right,2200,476.6,external-action,NA,302,2800,1600,66.70000000000003,2,2200,2800,4840000,214,-600,-600,360000,same,right,3.342422680822206,3.34242268082221,3.4471580313422194,2.678154038010437,0.00209819555182543,0.21702921228117794,0.30161146498827374,0.43698137828845185,0.19095272497087507,1.3379279406916214,-0.6743981743904683,0.45481289762119653
002,1,action,2,left,2800,518.2,external-action,NA,375.8,2200,2800,41.59999999999997,2,2800,2200,7840000,215,600,600,360000,different,right,3.4471580313422194,3.44715803134222,3.342422680822206,2.714497408649806,0.0019297568506368196,0.7706348617744273,0.8350031587171477,1.3325941234252048,1.7758070977873899,0.44365685543781047,0.6919150100889222,0.4787463811863533
002,1,action,2,right,1600,396.2,external-action,NA,296.9,2800,2200,-122,2,1600,2800,2560000,216,-1200,-1200,1440000,different,left,3.2041199826559246,3.20411998265592,3.4471580313422194,2.5979144712025284,0.002523977788995457,-0.8529201679894289,-0.8760205952967295,-0.4586313668483011,0.21034273065714093,1.3379279406916214,-1.3575547666301637,1.8429549444002782
002,1,action,2,right,1600,511.4,external-action,NA,307.8,1600,2800,115.19999999999996,2,1600,1600,2560000,217,0,0,0,same,right,3.2041199826559246,3.20411998265592,3.2041199826559246,2.708760723690317,0.0019554165037152915,0.6801416306072607,0.7508089837383326,-0.4586313668483011,0.21034273065714093,-0.45061422981600047,0.008758417849226863,7.670988322165571e-5
002,1,action,2,right,1600,533.8000000000001,external-action,NA,364,1600,1600,22.40000000000008,2,1600,1600,2560000,218,0,0,0,same,right,3.2041199826559246,3.20411998265592,3.2041199826559246,2.727378569451489,0.0018733608092918693,0.9782369803343961,1.0240528824035044,-0.4586313668483011,0.21034273065714093,-0.45061422981600047,0.008758417849226863,7.670988322165571e-5
002,1,action,2,left,1000,526.6999999999999,external-action,NA,276.1,1600,1600,-7.1000000000001,2,1000,1600,1000000,219,-600,-600,360000,different,right,3,3,3.2041199826559246,2.721563318357481,0.001898614011771407,0.883751400733383,0.9387056354111865,-1.354244111985054,1.8339771148461872,-0.45061422981600047,-0.6743981743904683,0.45481289762119653
002,1,action,2,right,1600,395.9,external-action,NA,566.6999999999999,1000,1600,-130.79999999999998,2,1600,1000,2560000,220,600,600,360000,different,left,3.2041199826559246,3.20411998265592,3,2.5975855017522047,0.002525890376357666,-0.8569125164232746,-0.8808486992729503,-0.4586313668483011,0.21034273065714093,-1.3448853150698115,0.6919150100889222,0.4787463811863533
002,1,action,2,right,1000,513.1,external-action,NA,419.09999999999997,1600,1000,117.20000000000005,2,1000,1600,1000000,221,-600,-600,360000,same,right,3,3,3.2041199826559246,2.7102020146553847,0.0019489378288832584,0.7027649383990527,0.7719620197800939,-1.354244111985054,1.8339771148461872,-0.45061422981600047,-0.6743981743904683,0.45481289762119653
002,1,action,2,right,1000,511.90000000000003,external-action,NA,309.09999999999997,1000,1600,-1.19999999999997,2,1000,1000,1000000,222,0,0,0,same,right,3,3,3,2.7091851295502454,0.001953506544246923,0.6867955446636708,0.7570377554915646,-1.354244111985054,1.8339771148461872,-1.3448853150698115,0.008758417849226863,7.670988322165571e-5
002,1,action,2,right,2200,445.79999999999995,external-action,NA,575.4,1000,1000,-66.10000000000005,2,2200,1000,4840000,223,1200,1200,1440000,same,right,3.342422680822206,3.34242268082221,3,2.649140064144219,0.002243158366980709,-0.1928518935936324,-0.12421069707457218,0.43698137828845185,0.19095272497087507,-1.3448853150698115,1.3750716023286174,1.890821911530591
002,1,action,2,right,1000,483.70000000000005,external-action,NA,505,2200,1000,37.90000000000004,2,1000,2200,1000000,224,-1200,-1200,1440000,same,right,3,3,3.342422680822206,2.6845760873884554,0.0020673971469919367,0.3115147918821895,0.39586435718537183,-1.354244111985054,1.8339771148461872,0.44365685543781047,-1.3575547666301637,1.8429549444002782
002,1,action,2,left,1000,510.4,external-action,NA,459.5,1000,2200,26.69999999999994,2,1000,1000,1000000,225,0,0,0,different,right,3,3,3,2.707910665713106,0.0019592476489028216,0.6668338024944422,0.7383331495970419,-1.354244111985054,1.8339771148461872,-1.3448853150698115,0.008758417849226863,7.670988322165571e-5
002,1,action,2,left,1000,600.1,external-action,NA,391.6,1000,1000,89.7,2,1000,1000,1000000,226,0,0,0,same,left,3,3,3,2.7782236267660965,0.0016663889351774704,1.860545984214261,1.770277868189552,-1.354244111985054,1.8339771148461872,-1.3448853150698115,0.008758417849226863,7.670988322165571e-5
002,1,action,2,right,1000,417.1,external-action,NA,386,1000,1000,-182.99999999999991,2,1000,1000,1000000,227,0,0,0,different,left,3,3,3,2.6202401898458314,0.002397506593143131,-0.5747865604315221,-0.5483582824355784,-1.354244111985054,1.8339771148461872,-1.3448853150698115,0.008758417849226863,7.670988322165571e-5
002,1,action,2,left,2200,517.8000000000001,external-action,NA,485.5,1000,1000,100.7,2,2200,1000,4840000,228,1200,1200,1440000,different,right,3.342422680822206,3.34242268082221,3,2.714162046098853,0.0019312475859405173,0.7653117305293002,0.8300812267136177,0.43698137828845185,0.19095272497087507,-1.3448853150698115,1.3750716023286174,1.890821911530591
002,1,action,2,right,1600,434.09999999999997,external-action,NA,320.5,2200,1000,-83.70000000000005,2,1600,2200,2560000,229,-600,-600,360000,different,left,3.2041199826559246,3.20411998265592,3.342422680822206,2.6375897858387,0.00230361667818475,-0.34855348251360857,-0.2937277891889405,-0.4586313668483011,0.21034273065714093,0.44365685543781047,-0.6743981743904683,0.45481289762119653
002,1,action,2,right,1600,449.90000000000003,external-action,NA,334.7,1600,2200,15.80000000000003,2,1600,1600,2560000,230,0,0,0,same,right,3.2041199826559246,3.20411998265592,3.2041199826559246,2.653115993165567,0.002222716159146477,-0.13828979833107552,-0.06585817012030924,-0.4586313668483011,0.21034273065714093,-0.45061422981600047,0.008758417849226863,7.670988322165571e-5
002,1,action,2,right,2800,417.1,external-action,NA,467.5,1600,1600,-32.79999999999999,2,2800,1600,7840000,231,1200,1200,1440000,same,right,3.4471580313422194,3.44715803134222,3.2041199826559246,2.6202401898458314,0.002397506593143131,-0.5747865604315221,-0.5483582824355784,1.3325941234252048,1.7758070977873899,-0.45061422981600047,1.3750716023286174,1.890821911530591
002,1,action,2,left,2800,387.1,external-action,NA,273.3,2800,1600,-30.00000000000002,2,2800,2800,7840000,232,0,0,0,different,right,3.4471580313422194,3.44715803134222,3.4471580313422194,2.5878231713189552,0.002583311805734952,-0.9740214038160767,-1.0241250622774105,1.3325941234252048,1.7758070977873899,1.3379279406916214,0.008758417849226863,7.670988322165571e-5
002,1,action,2,left,2200,540.3,external-action,NA,380.59999999999997,2800,2800,153.2,2,2200,2800,4840000,233,-600,-600,360000,same,left,3.342422680822206,3.34242268082221,3.4471580313422194,2.732634967539196,0.0018508236165093468,1.0647378630677147,1.1011981507039106,0.43698137828845185,0.19095272497087507,1.3379279406916214,-0.6743981743904683,0.45481289762119653
002,1,action,2,right,1000,487.59999999999997,external-action,NA,378,2200,2800,-52.70000000000002,2,1000,2200,1000000,234,-1200,-1200,1440000,different,left,3,3,3.342422680822206,2.6880636969463443,0.002050861361771944,0.36341532152218053,0.4470500875241042,-1.354244111985054,1.8339771148461872,0.44365685543781047,-1.3575547666301637,1.8429549444002782
002,1,action,2,left,1600,469.7,external-action,NA,417.5,1000,2200,-17.89999999999997,2,1600,1000,2560000,235,600,600,360000,different,right,3.2041199826559246,3.20411998265592,3,2.671820560183249,0.0021290185224611454,0.12520519830272991,0.2086584888056324,-0.4586313668483011,0.21034273065714093,-1.3448853150698115,0.6919150100889222,0.4787463811863533
002,1,action,2,right,2800,351.2,external-action,NA,318.40000000000003,1600,1000,-118.5,2,2800,1600,7840000,236,1200,1200,1440000,different,left,3.4471580313422194,3.44715803134222,3.2041199826559246,2.545554507234065,0.0028473804100227792,-1.451772433066261,-1.644479034164478,1.3325941234252048,1.7758070977873899,-0.45061422981600047,1.3750716023286174,1.890821911530591
002,1,action,2,right,1000,496.59999999999997,external-action,NA,338.9,2800,1600,145.39999999999998,2,1000,2800,1000000,237,-1800,-1800,3240000,same,right,3,3,3.4471580313422194,2.6960067152185454,0.002013693113169553,0.48318577453754696,0.5636254049752405,-1.354244111985054,1.8339771148461872,1.3379279406916214,-2.040711358869859,4.164502850220467
002,1,action,2,left,1600,450.29999999999995,external-action,NA,401.4,1000,2800,-46.30000000000001,2,1600,1000,2560000,238,600,600,360000,different,right,3.2041199826559246,3.20411998265592,3,2.653501946962933,0.0022207417277370642,-0.1329666670859492,-0.06019373817422088,-0.4586313668483011,0.21034273065714093,-1.3448853150698115,0.6919150100889222,0.4787463811863533
002,1,action,2,right,2200,445.29999999999995,external-action,NA,246.9,1600,1000,-5,2,2200,1600,4840000,239,600,600,360000,different,left,3.342422680822206,3.34242268082221,3.2041199826559246,2.648652695131223,0.0022456770716370988,-0.19950580765004164,-0.1313635444505726,0.43698137828845185,0.19095272497087507,-0.45061422981600047,0.6919150100889222,0.4787463811863533
002,1,action,2,left,2200,406.3,external-action,NA,293.3,2200,1600,-38.99999999999998,2,2200,2200,4840000,240,0,0,0,different,right,3.342422680822206,3.34242268082221,3.342422680822206,2.6088468223264116,0.002461235540241201,-0.7185111040499619,-0.7155724811064028,0.43698137828845185,0.19095272497087507,0.44365685543781047,0.008758417849226863,7.670988322165571e-5
002,1,action,3,left,1000,945.6,external-action,NA,438,2200,1000,518.3,2,1000,2200,1000000,243,-1200,-1200,1440000,different,right,3,3,3.342422680822206,2.97570746353718,0.0010575296108291032,6.458400597193049,4.668639696668366,-1.354244111985054,1.8339771148461872,0.44365685543781047,-1.2299806529688815,1.512852406677756
002,1,action,3,right,2800,401.7,external-action,NA,454,1000,2200,-543.9000000000001,2,2800,1000,7840000,244,1800,1800,3240000,different,left,3.4471580313422194,3.44715803134222,3,2.6039018317316716,0.0024894199651481204,-0.7797271133689273,-0.7881473926349598,1.3325941234252048,1.7758070977873899,-1.3448853150698115,1.8648093770818523,3.477514012852406
002,1,action,3,right,1000,510.6000000000001,external-action,NA,351.1,2800,1000,108.90000000000003,2,1000,2800,1000000,245,-1800,-1800,3240000,same,right,3,3,3.4471580313422194,2.7080808104682315,0.0019584802193497843,0.6694953681170073,0.7408302707368499,-1.354244111985054,1.8339771148461872,1.3379279406916214,-1.8489386589790282,3.418574164667167
002,1,action,3,left,1000,571,external-action,NA,306.3,1000,2800,60.3999999999999,2,1000,1000,1000000,246,0,0,0,different,right,3,3,3,2.756636108245848,0.0017513134851138354,1.4732881861312428,1.4534497131684687,-1.354244111985054,1.8339771148461872,-1.3448853150698115,0.007935359051412138,6.296992327482855e-5
002,1,action,3,left,2200,522.5,external-action,NA,294.4,1000,1000,-48.499999999999986,2,2200,1000,4840000,247,1200,1200,1440000,same,left,3.342422680822206,3.34242268082221,3,2.7180862947830917,0.0019138755980861245,0.8278585226595462,0.8876752697392224,0.43698137828845185,0.19095272497087507,-1.3448853150698115,1.2458513710717056,1.5521456388012487
002,1,action,3,right,1000,450.40000000000003,external-action,NA,295.3,2200,1000,-72.09999999999994,2,1000,2200,1000000,248,-1200,-1200,1440000,different,left,3,3,3.342422680822206,2.65359838184329,0.002220248667850799,-0.1316358842746663,-0.05877841639026603,-1.354244111985054,1.8339771148461872,0.44365685543781047,-1.2299806529688815,1.512852406677756
002,1,action,3,left,2200,490.20000000000005,external-action,NA,318.2,1000,2200,39.800000000000004,2,2200,1000,4840000,249,1200,1200,1440000,different,right,3.342422680822206,3.34242268082221,3,2.6903733069160594,0.0020399836801305586,0.3980156746155097,0.4809469647792075,0.43698137828845185,0.19095272497087507,-1.3448853150698115,1.2458513710717056,1.5521456388012487
002,1,action,3,right,2800,368.3,external-action,NA,287.8,2200,1000,-121.89999999999999,2,2800,2200,7840000,250,600,600,360000,different,left,3.4471580313422194,3.44715803134222,3.342422680822206,2.566201718854913,0.0027151778441487917,-1.2242085723370644,-1.3414512471574962,1.3325941234252048,1.7758070977873899,0.44365685543781047,0.626893365061559,0.3929952911582051
002,1,action,3,right,2800,504.4,external-action,NA,273.7,2800,2200,136.09999999999994,2,2800,2800,7840000,251,0,0,0,same,right,3.4471580313422194,3.44715803134222,3.4471580313422194,2.702775077901044,0.0019825535289452814,0.5869868338175313,0.6629609473720319,1.3325941234252048,1.7758070977873899,1.3379279406916214,0.007935359051412138,6.296992327482855e-5
002,1,action,3,right,2200,475.7,external-action,NA,356.70000000000005,2800,2800,-28.699999999999942,2,2200,2800,4840000,252,-600,-600,360000,same,right,3.342422680822206,3.34242268082221,3.4471580313422194,2.677333151419902,0.002102165230187093,0.20505216697964085,0.28956376327040906,0.43698137828845185,0.19095272497087507,1.3379279406916214,-0.6110226469587346,0.37334867509645847
002,1,action,3,left,1000,658.5,external-action,NA,257.40000000000003,2200,2800,182.79999999999995,2,1000,2200,1000000,253,-1200,-1200,1440000,different,right,3,3,3.342422680822206,2.8185557792978027,0.0015186028853454822,2.6377231460028607,2.3622107234023333,-1.354244111985054,1.8339771148461872,0.44365685543781047,-1.2299806529688815,1.512852406677756
002,1,action,3,left,1600,562.5,external-action,NA,290.6,1000,2200,-95.99999999999996,2,1600,1000,2560000,254,600,600,360000,same,left,3.2041199826559246,3.20411998265592,3,2.7501225267834,0.0017777777777777779,1.3601716471722858,1.3578534548309829,-0.4586313668483011,0.21034273065714093,-1.3448853150698115,0.626893365061559,0.3929952911582051
002,1,action,3,right,1600,368.4,external-action,NA,367.5,1600,1000,-194.1,2,1600,1600,2560000,255,0,0,0,different,left,3.2041199826559246,3.20411998265592,3.2041199826559246,2.566319621524811,0.002714440825190011,-1.222877789525783,-1.3397208544149999,-0.4586313668483011,0.21034273065714093,-0.45061422981600047,0.007935359051412138,6.296992327482855e-5
002,1,action,3,right,1600,500.2,external-action,NA,410.6,1600,1600,131.79999999999998,2,1600,1600,2560000,256,0,0,0,same,right,3.2041199826559246,3.20411998265592,3.2041199826559246,2.699143687394484,0.001999200319872051,0.5310939557436938,0.6096650230037243,-0.4586313668483011,0.21034273065714093,-0.45061422981600047,0.007935359051412138,6.296992327482855e-5
002,1,action,3,left,1600,434.09999999999997,external-action,NA,394.8,1600,1600,-66.1,2,1600,1600,2560000,257,0,0,0,different,right,3.2041199826559246,3.20411998265592,3.2041199826559246,2.6375897858387,0.00230361667818475,-0.34855348251360857,-0.2937277891889405,-0.4586313668483011,0.21034273065714093,-0.45061422981600047,0.007935359051412138,6.296992327482855e-5
002,1,action,3,right,1000,511.70000000000005,external-action,NA,357,1600,1600,77.60000000000005,2,1000,1600,1000000,258,-600,-600,360000,different,left,3,3,3.2041199826559246,2.7090154169721172,0.001954270080125073,0.6841339790411072,0.7545469771762257,-1.354244111985054,1.8339771148461872,-0.45061422981600047,-0.6110226469587346,0.37334867509645847
002,1,action,3,left,1000,558,external-action,NA,501.09999999999997,1000,1600,46.30000000000001,2,1000,1000,1000000,259,0,0,0,different,right,3,3,3,2.7466341989375787,0.0017921146953405018,1.3002864206646025,1.3066571825746942,-1.354244111985054,1.8339771148461872,-1.3448853150698115,0.007935359051412138,6.296992327482855e-5
002,1,action,3,left,1000,586.9,external-action,NA,305.59999999999997,1000,1000,28.89999999999992,2,1000,1000,1000000,260,0,0,0,same,left,3,3,3,2.7685641095135733,0.0017038677798602829,1.6848826531250565,1.628510437781065,-1.354244111985054,1.8339771148461872,-1.3448853150698115,0.007935359051412138,6.296992327482855e-5
002,1,action,3,right,2800,462.6,external-action,NA,334.8,1000,1000,-124.29999999999997,2,2800,1000,7840000,261,1800,1800,3240000,different,left,3.4471580313422194,3.44715803134222,3,2.6652056284346006,0.0021616947686986594,0.030719618701719114,0.11157476797181516,1.3325941234252048,1.7758070977873899,-1.3448853150698115,1.8648093770818523,3.477514012852406
002,1,action,3,left,2800,458.6,external-action,NA,484.70000000000005,2800,1000,-4,2,2800,2800,7840000,262,0,0,0,different,right,3.4471580313422194,3.44715803134222,3.4471580313422194,2.66143405039392,0.002180549498473615,-0.022511693749554838,0.05622138814605792,1.3325941234252048,1.7758070977873899,1.3379279406916214,0.007935359051412138,6.296992327482855e-5
002,1,action,3,right,2800,434.5,external-action,NA,274.1,2800,2800,-24.10000000000001,2,2800,2800,7840000,263,0,0,0,different,left,3.4471580313422194,3.44715803134222,3.4471580313422194,2.6379897807846855,0.0023014959723820483,-0.34323035126848067,-0.28785728301494695,1.3325941234252048,1.7758070977873899,1.3379279406916214,0.007935359051412138,6.296992327482855e-5
002,1,action,3,left,1600,523.4,external-action,NA,394.9,2800,2800,88.89999999999998,2,1600,2800,2560000,264,-1200,-1200,1440000,different,right,3.2041199826559246,3.20411998265592,3.4471580313422194,2.7188337183038622,0.0019105846388995033,0.8398355679610826,0.8986447943227436,-0.4586313668483011,0.21034273065714093,1.3379279406916214,-1.2299806529688815,1.512852406677756
002,1,action,3,right,1000,428,external-action,NA,335.8,1600,2800,-95.39999999999999,2,1000,1600,1000000,265,-600,-600,360000,different,left,3,3,3.2041199826559246,2.6314437690131722,0.002336448598130841,-0.42973123400180085,-0.3839295031902088,-1.354244111985054,1.8339771148461872,-0.45061422981600047,-0.6110226469587346,0.37334867509645847
002,1,action,3,right,2200,521.5999999999999,external-action,NA,618.3,1000,1600,93.59999999999997,2,2200,1000,4840000,266,1200,1200,1440000,same,right,3.342422680822206,3.34242268082221,3,2.7173375827238635,0.0019171779141104299,0.8158814773580084,0.8766868339843293,0.43698137828845185,0.19095272497087507,-1.3448853150698115,1.2458513710717056,1.5521456388012487
002,1,action,3,right,1000,562.1,external-action,NA,321.5,2200,1000,40.50000000000009,2,1000,2200,1000000,267,-1200,-1200,1440000,same,right,3,3,3.342422680822206,2.7498135852929377,0.0017790428749332858,1.3548485159271586,1.3533192902237412,-1.354244111985054,1.8339771148461872,0.44365685543781047,-1.2299806529688815,1.512852406677756
002,1,action,3,left,1000,544.6999999999999,external-action,NA,351.4,1000,2200,-17.40000000000008,2,1000,1000,1000000,268,0,0,0,different,right,3,3,3,2.736157375273132,0.001835872957591335,1.1232923067641158,1.1528945947638534,-1.354244111985054,1.8339771148461872,-1.3448853150698115,0.007935359051412138,6.296992327482855e-5
002,1,action,3,right,2800,530.3,external-action,NA,301.59999999999997,1000,1000,-14.39999999999996,2,2800,1000,7840000,269,1800,1800,3240000,different,left,3.4471580313422194,3.44715803134222,3,2.7245216271185626,0.0018857250612860648,0.9316595819395298,0.9821231086088151,1.3325941234252048,1.7758070977873899,-1.3448853150698115,1.8648093770818523,3.477514012852406
002,1,action,3,left,2800,422.70000000000005,external-action,NA,254.1,2800,1000,-107.59999999999997,2,2800,2800,7840000,270,0,0,0,different,right,3.4471580313422194,3.44715803134222,3.4471580313422194,2.626032247829019,0.002365744026496333,-0.5002627229997383,-0.463351427994795,1.3325941234252048,1.7758070977873899,1.3379279406916214,0.007935359051412138,6.296992327482855e-5
002,1,action,3,right,1600,426.4,external-action,NA,267.79999999999995,2800,2800,3.69999999999998,2,1600,2800,2560000,271,-1200,-1200,1440000,different,left,3.2041199826559246,3.20411998265592,3.4471580313422194,2.6298171960185157,0.0023452157598499064,-0.45102375898231073,-0.4078018218367808,-0.4586313668483011,0.21034273065714093,1.3379279406916214,-1.2299806529688815,1.512852406677756
002,1,action,3,left,1000,551,external-action,NA,284,1600,2800,124.60000000000005,2,1000,1600,1000000,272,-600,-600,360000,different,right,3,3,3.2041199826559246,2.741151598851785,0.0018148820326678765,1.207131623874873,1.226192071762112,-1.354244111985054,1.8339771148461872,-0.45061422981600047,-0.6110226469587346,0.37334867509645847
002,1,action,3,left,2800,477.6,external-action,NA,317.40000000000003,1000,1600,-73.40000000000002,2,2800,1000,7840000,273,1800,1800,3240000,same,left,3.4471580313422194,3.44715803134222,3,2.6790643181213127,0.0020938023450586263,0.23033704039399644,0.3149711463157308,1.3325941234252048,1.7758070977873899,-1.3448853150698115,1.8648093770818523,3.477514012852406
002,1,action,3,left,1600,574.8,external-action,NA,235.4,2800,1000,97.19999999999996,2,1600,2800,2560000,274,-1200,-1200,1440000,same,left,3.2041199826559246,3.20411998265592,3.4471580313422194,2.759516759462188,0.0017397355601948504,1.5238579329599526,1.4957274492258161,-0.4586313668483011,0.21034273065714093,1.3379279406916214,-1.2299806529688815,1.512852406677756
002,1,action,3,left,1600,579.9,external-action,NA,241.29999999999998,1600,2800,5.09999999999999,2,1600,1600,2560000,275,0,0,0,same,left,3.2041199826559246,3.20411998265592,3.2041199826559246,2.7633531087482153,0.0017244352474564582,1.5917278563353272,1.552031441051854,-0.4586313668483011,0.21034273065714093,-0.45061422981600047,0.007935359051412138,6.296992327482855e-5
002,1,action,3,left,2200,521.5999999999999,external-action,NA,283.6,1600,1600,-58.30000000000002,2,2200,1600,4840000,276,600,600,360000,same,left,3.342422680822206,3.34242268082221,3.2041199826559246,2.7173375827238635,0.0019171779141104299,0.8158814773580084,0.8766868339843293,0.43698137828845185,0.19095272497087507,-0.45061422981600047,0.626893365061559,0.3929952911582051
002,1,action,3,right,2200,485.09999999999997,external-action,NA,275.8,2200,1600,-36.49999999999998,2,2200,2200,4840000,277,0,0,0,different,left,3.342422680822206,3.34242268082221,3.342422680822206,2.6858312746260635,0.0020614306328592042,0.33014575124013434,0.41428605101388544,0.43698137828845185,0.19095272497087507,0.44365685543781047,0.007935359051412138,6.296992327482855e-5
002,1,action,3,left,2200,356.2,external-action,NA,69.2,2200,2200,-128.89999999999995,2,2200,2200,4840000,278,0,0,0,different,right,3.342422680822206,3.34242268082221,3.342422680822206,2.551693915127225,0.002807411566535654,-1.3852332925021684,-1.5543743158344288,0.43698137828845185,0.19095272497087507,0.44365685543781047,0.007935359051412138,6.296992327482855e-5
002,1,action,3,left,1600,599.6,external-action,NA,352.6,2200,2200,243.4,2,1600,2200,2560000,279,-600,-600,360000,same,left,3.2041199826559246,3.20411998265592,3.342422680822206,2.777861624176242,0.001667778519012675,1.8538920701578518,1.764964954963843,-0.4586313668483011,0.21034273065714093,0.44365685543781047,-0.6110226469587346,0.37334867509645847
002,1,action,3,right,2800,511.90000000000003,external-action,NA,434.8,1600,2200,-87.7,2,2800,1600,7840000,280,1200,1200,1440000,different,left,3.4471580313422194,3.44715803134222,3.2041199826559246,2.7091851295502454,0.001953506544246923,0.6867955446636708,0.7570377554915646,1.3325941234252048,1.7758070977873899,-0.45061422981600047,1.2458513710717056,1.5521456388012487
002,1,action,3,right,1600,450.6,external-action,NA,184.2,2800,1600,-61.30000000000002,2,1600,2800,2560000,281,-1200,-1200,1440000,same,right,3.2041199826559246,3.20411998265592,3.4471580313422194,2.653791187387812,0.0022192632046160675,-0.12897431865210274,-0.05594871528814877,-0.4586313668483011,0.21034273065714093,1.3379279406916214,-1.2299806529688815,1.512852406677756
002,1,action,3,left,2800,433.90000000000003,external-action,NA,286.3,1600,2800,-16.69999999999999,2,2800,1600,7840000,282,1200,1200,1440000,different,right,3.4471580313422194,3.44715803134222,3.2041199826559246,2.637389650129212,0.0023046784973496195,-0.3512150481361713,-0.2966650710970702,1.3325941234252048,1.7758070977873899,-0.45061422981600047,1.2458513710717056,1.5521456388012487
002,1,action,3,right,2200,346.9,external-action,NA,354.1,2800,1600,-87.00000000000003,2,2200,2800,4840000,283,-600,-600,360000,different,left,3.342422680822206,3.34242268082221,3.4471580313422194,2.5402042998420598,0.002882675122513693,-1.5089960939513805,-1.7230010901108002,0.43698137828845185,0.19095272497087507,1.3379279406916214,-0.6110226469587346,0.37334867509645847
